flight,time,wind_speed,wind_angle,position_x,position_y,position_z,orientation_x,orientation_y,orientation_z,orientation_w,velocity_x,velocity_y,velocity_z,angular_x,angular_y,angular_z,linear_acceleration_x,linear_acceleration_y,linear_acceleration_z,speed,payload,altitude,date,time_day,route,datetime,power
197,0.0,0.8999999761581421,76.0,-79.78274904014837,40.45904281577885,272.731133400023,-0.0161012187600135,0.0015663151862099,-0.9957483410835266,0.0906838178634643,-0.0406668045911288,-0.0107506548555506,0.0149617519851835,-0.0081465421244502,-0.0030132259707897,-0.0165855735540389,-0.074939176607877,0.2493123750016093,-9.810550807714463,10.0,250.0,25,2019-07-15,8:20,R1,2019-07-15 08:20:00.000,-1.3163456200061443
197,0.2,0.8000000119209291,84.0,-79.78274915372738,40.45904278252093,272.72309823197133,-0.0160633940249681,0.0015809286851435,-0.9957486987113952,0.0906866565346717,-0.0267856961697791,-0.0103041300777311,0.0126202553665217,0.0075348857790231,0.0025440549943596,0.0092484140768647,-0.0765902749914676,0.2589722493477165,-9.808282088041306,10.0,250.0,25,2019-07-15,8:20,R1,2019-07-15 08:20:00.200,-1.3163456200061443
197,0.3,0.8000000119209291,84.0,-79.78274924735494,40.45904270337199,272.71616716545816,-0.0160133577883243,0.0016185790300369,-0.995749056339264,0.0906914547085762,-0.0168529569593807,-0.0018849981292202,0.011199370479056,0.0060393391177058,0.0010252819629386,0.0010121191153302,-0.0850253860652446,0.2724007638171315,-9.806242579221726,10.0,250.0,25,2019-07-15,8:20,R1,2019-07-15 08:20:00.300,-1.127997581001379
197,0.5,0.8000000119209291,85.0,-79.7827492249183,40.45904270893318,272.71725681287046,-0.0160422828048467,0.0016143928514793,-0.995746910572052,0.090709388256073,-0.0216927515837834,-0.0035103486469349,0.0116810181317472,-0.0030971709638834,-0.0001865447266027,0.0014068142045289,-0.0770724784210324,0.2575418376736343,-9.809326985478402,10.0,250.0,25,2019-07-15,8:20,R1,2019-07-15 08:20:00.500,-1.128176761632117
197,0.6,0.8000000119209291,85.0,-79.78274924257957,40.45904268634703,272.71265027534963,-0.0160428099334239,0.0016108709387481,-0.9957478046417236,0.0906997770071029,-0.0249454842132089,-0.0058784840638338,0.0137994066225375,0.0054886643774807,0.0012854923261329,0.0096689583733677,-0.0793870896007865,0.2845993895642461,-9.805699372887611,10.0,250.0,25,2019-07-15,8:20,R1,2019-07-15 08:20:00.600,-1.128176761632117
197,0.8,0.8000000119209291,85.0,-79.78274921129321,40.45904269687763,272.7139743999839,-0.0160517916083335,0.0016108056297525,-0.9957476258277892,0.0907003283500671,-0.0308867778555303,-0.0075661913415604,0.0143380595861174,-0.0089721847325563,-0.0053164572454988,-0.0104407155886292,-0.0833792669512331,0.2829881344735622,-9.804600681066514,10.0,250.0,25,2019-07-15,8:20,R1,2019-07-15 08:20:00.800,-1.128296245719552
197,0.9,0.8000000119209291,86.0,-79.78274920420762,40.4590426546275,272.7094639078975,-0.0160584561526775,0.0016501676291227,-0.9957457184791564,0.0907196402549743,-0.0348156544556969,-0.005062236504892,0.0161730816938239,-0.0130822341889143,-0.0041250558570027,-0.0004591373435687,-0.0772912191040813,0.2621016974374652,-9.807314958572386,10.0,250.0,25,2019-07-15,8:20,R1,2019-07-15 08:20:00.900,-0.5640883808160574
197,1.1,0.8000000119209291,86.0,-79.78274916304795,40.45904266600404,272.71098475021125,-0.0160545445978641,0.0016288924962282,-0.9957455992698668,0.0907217413187027,-0.0378713382761123,-0.0073414082653531,0.0165057177667012,0.0035507902503013,0.0034530900884419,-0.0017756767338141,-0.0789067773800343,0.2765885213948786,-9.806198140382769,10.0,250.0,25,2019-07-15,8:20,R1,2019-07-15 08:20:01.100,-0.7521974971463672
197,1.21,0.8000000119209291,82.0,-79.78274919988164,40.45904263658053,272.70665481549497,-0.0160508602857589,0.0016666664741933,-0.9957454800605774,0.0907222777605056,-0.036817874941842,-0.0077287716437327,0.0180218625326374,-0.006659158039838,-0.0001760668237693,-0.0104482183232903,-0.0763841880485415,0.2545185896381736,-9.809497139453889,10.0,250.0,25,2019-07-15,8:20,R1,2019-07-15 08:20:01.210,-0.7519585896387163
197,1.4,0.8000000119209291,75.0,-79.7827493056818,40.45904257088462,272.698291449368,-0.0160045474767684,0.0017086708685383,-0.9957449436187744,0.090735912322998,-0.025102183492394,-0.0029882655663591,0.0146192125451486,0.0038821594789624,0.0041902535594999,0.0077076898887753,-0.0736002510180696,0.2532870746590197,-9.809476089477537,10.0,250.0,25,2019-07-15,8:20,R1,2019-07-15 08:20:01.400,-0.5641182745881231
197,1.5,0.699999988079071,73.0,-79.78274923713731,40.45904258900968,272.70111679148675,-0.0160160418599843,0.0017109214095398,-0.9957465529441832,0.0907167270779609,-0.0332270944638013,-0.0066660600813644,0.0153964205385647,0.0089473528787493,0.0032980614341795,0.0046590850688517,-0.0847934617381543,0.2800347423925996,-9.805622189641,10.0,250.0,25,2019-07-15,8:20,R1,2019-07-15 08:20:01.500,-0.7521178410880772
197,1.7,0.8000000119209291,69.0,-79.78274937247897,40.45904253384491,272.69513254475595,-0.015969818457961,0.0017344870138913,-0.9957455396652222,0.0907348021864891,-0.0217851904113344,-0.0054095137398868,0.016214987315757,-0.004961063619703,-0.0025874725542962,0.0018164725042879,-0.0806889538932591,0.2592528791539371,-9.80819905757904,10.0,250.0,25,2019-07-15,8:20,R1,2019-07-15 08:20:01.700,-0.9403464415058218
197,1.8,0.8000000119209291,67.0,-79.78274941634449,40.45904248399682,272.69064476948984,-0.0159605219960212,0.0017527171876281,-0.9957440495491028,0.0907522216439247,-0.0228178925478473,-0.0029849940993532,0.0172206390620492,0.0042637968435883,0.0023143661674112,0.0059658540412783,-0.0815128996688872,0.2814818186312914,-9.805712821483612,10.0,250.0,25,2019-07-15,8:20,R1,2019-07-15 08:20:01.800,-0.5641481228597749
197,2.0,0.8000000119209291,69.0,-79.78274938721056,40.45904249144824,272.69231735777856,-0.0159597024321556,0.0017318720929324,-0.9957435131072998,0.0907586887478828,-0.0280682950900552,-0.0044027024516055,0.0178131813705733,-0.0050535090267658,-0.0019174257759004,-0.0104630487039685,-0.0802391476929187,0.2857990737631917,-9.80601219892502,10.0,250.0,25,2019-07-15,8:20,R1,2019-07-15 08:20:02.000,-0.7521974971463672
197,2.1,0.8000000119209291,68.0,-79.78274947416435,40.45904242609774,272.6877627806068,-0.0159244183450937,0.0017677660798653,-0.9957438111305236,0.0907613784074783,-0.023061710331697,-0.0018157110063241,0.0187186630811654,-0.0105124153196811,-0.0014600533759221,-0.0094708446413278,-0.0735026116529479,0.2565019103698433,-9.81079989910126,10.0,250.0,25,2019-07-15,8:20,R1,2019-07-15 08:20:02.100,0.0
197,2.3,0.8000000119209291,63.0,-79.78274944635645,40.45904243253037,272.6895635263324,-0.0159321278333663,0.0017361782956868,-0.9957424998283386,0.0907749757170677,-0.0250745771359805,-0.003910026408502,0.0188329428850877,0.0087517127394676,0.0033037590328603,0.0024042001459747,-0.0809282511938363,0.2693972318619489,-9.806593412160874,10.0,250.0,25,2019-07-15,8:20,R1,2019-07-15 08:20:02.300,-1.1284157298069866
197,2.4,0.8000000119209291,62.0,-79.78274950841202,40.45904237169785,272.68514678490163,-0.0159150008112192,0.0017597592668607,-0.9957407116889954,0.0907972082495689,-0.0263903743466785,-0.0012741675217005,0.0192409911697243,0.0014585120370611,-0.0035980965476483,-0.0044115777127444,-0.0814954402483999,0.2580508377961814,-9.806828470230103,10.0,250.0,25,2019-07-15,8:20,R1,2019-07-15 08:20:02.400,-0.7522373555091214
197,2.6,0.699999988079071,57.0,-79.78274947555153,40.45904237808862,272.6869968162179,-0.0159350596368312,0.0017625800101086,-0.9957408905029296,0.0907915383577346,-0.0293182783324863,-0.0029401722953096,0.0194846230797698,0.0027734299656003,0.0053960061632096,0.0064366096630692,-0.0771397031284868,0.2510580246895552,-9.809175542593003,10.0,250.0,25,2019-07-15,8:20,R1,2019-07-15 08:20:02.600,-0.5641182745881231
197,2.7,0.699999988079071,54.0,-79.78274956686361,40.459042321407736,272.68296860393883,-0.0159054435789585,0.0017676870338618,-0.9957398772239684,0.0908075496554374,-0.0241824329865761,-0.0034359133517555,0.0196401810244315,0.0099886320531368,0.0064875017851591,0.0092735784128308,-0.0832735693920403,0.2883358517289162,-9.804493092298507,10.0,250.0,25,2019-07-15,8:20,R1,2019-07-15 08:20:02.700,-1.128296245719552
197,2.9,0.699999988079071,50.0,-79.7827496960589,40.45904225828858,272.67703558367486,-0.0158619508147239,0.0017885109409689,-0.9957394599914552,0.0908200219273567,-0.0166094827005201,-0.0007733149461978,0.0195922373782373,-0.0102000255137681,-0.006465895101428,-0.0056638987734913,-0.0823095188476145,0.2743729931116104,-9.807352965474127,10.0,250.0,25,2019-07-15,8:20,R1,2019-07-15 08:20:02.900,-0.5641182745881231
197,3.0,0.699999988079071,54.0,-79.78274965070959,40.45904226914607,272.6808846690953,-0.0159138422459363,0.0017834554892033,-0.9957362413406372,0.090846486389637,-0.0234440622627308,-0.0041021856270442,0.0202440500781518,-0.00445545790717,-0.0017929547466337,0.0023075547069311,-0.0793326648138463,0.2681148278340697,-9.807823081612588,10.0,250.0,25,2019-07-15,8:20,R1,2019-07-15 08:20:03.000,-0.7522373555091214
197,3.2,0.699999988079071,52.0,-79.78274973459354,40.459042207263096,272.67506125059725,-0.015874870121479,0.0017978883115574,-0.9957366585731506,0.0908477529883384,-0.0217864265048238,-0.0009722675063405,0.0199472418007891,0.0008705137879587,-0.0006546662771143,-0.0021926837507635,-0.0830297039542347,0.2822245611995458,-9.804286100864411,10.0,250.0,25,2019-07-15,8:20,R1,2019-07-15 08:20:03.200,-0.9402966943864024
197,3.31,0.6000000238418579,54.0,-79.7827498293251,40.45904214308301,272.6713327379227,-0.0158241651952266,0.0018230370478704,-0.995737612247467,0.090846411883831,-0.0184470548295778,0.0011328417404062,0.020074762028253,-0.0071797939017415,-0.0040648826397955,-0.0128079587593674,-0.0772656923532486,0.2504980807006359,-9.809538069963455,10.0,250.0,25,2019-07-15,8:20,R1,2019-07-15 08:20:03.310,-0.1878900773368149
197,3.5,0.699999988079071,50.0,-79.78274980614536,40.45904214596331,272.67328019303085,-0.0158297587186098,0.0018120453460142,-0.995737075805664,0.090851329267025,-0.0200078284638556,-0.0006377193818669,0.0201080630423988,0.008240052498877,0.0064884442836046,0.0095527237281203,-0.0743855001032352,0.2593880777433515,-9.807294493317604,10.0,250.0,25,2019-07-15,8:20,R1,2019-07-15 08:20:03.500,-0.7522771532046569
197,3.61,0.6000000238418579,46.0,-79.78274985962413,40.45904207986509,272.6703999140561,-0.0157825052738189,0.0018270730506628,-0.9957375526428224,0.0908532366156578,-0.0227831209690953,0.0023442294422015,0.0205510503473231,0.0073665846139192,0.000401476630941,0.0023171612992882,-0.0818616404011845,0.2700195035152137,-9.80751785695553,10.0,250.0,25,2019-07-15,8:20,R1,2019-07-15 08:20:03.610,-0.9397988440220908
197,3.8,0.6000000238418579,43.0,-79.78274982940484,40.45904208235758,272.6723967180848,-0.015811875462532,0.0018138614250347,-0.9957358241081238,0.090868167579174,-0.0265439168641758,0.0010931910032206,0.0208940683444876,0.0022436373401433,0.0043341065756976,0.0081539079546928,-0.0782588510680943,0.2513798773661256,-9.808789041638375,10.0,250.0,25,2019-07-15,8:20,R1,2019-07-15 08:20:03.800,-0.9402966943864024
197,3.9,0.699999988079071,43.0,-79.7827499436732,40.459042021109056,272.66978945818545,-0.0157411321997642,0.0018267158884555,-0.9957373142242432,0.0908636823296547,-0.0187904695629789,0.0003766951084006,0.020553355580413,0.0108362101018428,0.0049100993201136,0.0126963276416063,-0.0823101675231009,0.2884020897187293,-9.805964251756668,10.0,250.0,25,2019-07-15,8:20,R1,2019-07-15 08:20:03.900,-0.94019712431354
197,4.1,0.6000000238418579,44.0,-79.78274991801041,40.45904202492897,272.6718088821769,-0.0157373957335948,0.0018241355428472,-0.9957379698753356,0.0908571407198906,-0.0242861655390561,-0.001008982449995,0.021215953605773,-0.0080653959885239,-0.0025623780675232,-0.0093586230650544,-0.0838508448936045,0.2813370269536972,-9.806494594216348,10.0,250.0,25,2019-07-15,8:20,R1,2019-07-15 08:20:04.100,-0.7521576994508316
197,4.21,0.699999988079071,45.0,-79.78275005048779,40.45904195980794,272.67178940635915,-0.0156935844570398,0.0018572482513263,-0.9957358837127686,0.0908863246440887,-0.0176001563901105,-0.0008189542503492,0.0244847338698238,-0.0062013054266572,-0.0069164400920271,-0.003644220996648,-0.0794724315404892,0.2642094176821411,-9.807482188940048,10.0,250.0,25,2019-07-15,8:20,R1,2019-07-15 08:20:04.210,-0.9402468714329596
197,4.4,0.699999988079071,47.0,-79.78275014516908,40.45904189542362,272.6663481206894,-0.0156681314110755,0.0018685883842408,-0.9957374334335328,0.0908740907907486,-0.0157757811687016,0.0018015617338919,0.0228523186615858,0.006983992177993,0.0019402308389544,-0.0001488224079366,-0.0808864892832934,0.27519556844607,-9.80749680697918,10.0,250.0,25,2019-07-15,8:20,R1,2019-07-15 08:20:04.400,-0.7522373555091214
197,4.5,0.699999988079071,50.0,-79.7827500983082,40.459041900854366,272.6708772429526,-0.0156697425991296,0.0018843148136511,-0.995736300945282,0.0908856242895126,-0.0231206090898612,-0.0009872676872728,0.0236483233542615,-0.0015079516451805,-0.0005612760432995,-0.0078236069530248,-0.0796220288984477,0.2512134144455195,-9.810057302713394,10.0,250.0,25,2019-07-15,8:20,R1,2019-07-15 08:20:04.500,-0.9402468714329596
197,4.7,0.699999988079071,43.0,-79.78275019282576,40.459041875467896,272.665517164886,-0.0156601704657077,0.0018981548491865,-0.9957367777824402,0.0908815860748291,-0.0213272965639401,-0.0049483724919195,0.0223571729234561,0.0031128656119108,0.0063242902979254,0.0068381405435502,-0.0757879410730675,0.2504225968010724,-9.808748111128809,10.0,250.0,25,2019-07-15,8:20,R1,2019-07-15 08:20:04.700,-1.5042356821761569
197,4.8,0.699999988079071,45.0,-79.78275026306807,40.459041833442406,272.6605010540485,-0.0156389456242322,0.0019065730739384,-0.9957362413406372,0.0908911675214767,-0.0218555125563833,-0.0026799841475803,0.0188988084125494,0.0076226638630032,0.0042350837029516,0.0058066337369382,-0.0825829218607396,0.2866686278209089,-9.805397656559943,10.0,250.0,25,2019-07-15,8:20,R1,2019-07-15 08:20:04.800,-0.9401473013600972
197,5.0,0.699999988079071,47.0,-79.7827502346678,40.45904184027951,272.66234342989327,-0.0156483873724937,0.001909963437356,-0.9957354664802552,0.0908974558115005,-0.0268937174471806,-0.0038106414040748,0.0193688661439598,-0.008128928951919,-0.0057875895872712,-0.0063965450972318,-0.0842436955589801,0.2711160757206381,-9.805936185121537,10.0,250.0,25,2019-07-15,8:20,R1,2019-07-15 08:20:05.000,-0.9402468714329596
197,5.11,0.699999988079071,49.0,-79.78275037591341,40.45904174369928,272.658228351295,-0.0155860586091876,0.001950375852175,-0.9957379698753356,0.090880662202835,-0.0145928042848986,0.006172819162124,0.0194769126763446,-0.0015520757297053,0.0003609683190006,0.0045887595042586,-0.0785396544635295,0.2741044962778688,-9.807216140627864,10.0,250.0,25,2019-07-15,8:20,R1,2019-07-15 08:20:05.110,1.879597688044184
197,5.3,0.8000000119209291,53.0,-79.78275035553087,40.45904174153824,272.66013537955286,-0.0155750727280974,0.0019473246065899,-0.9957385659217834,0.0908757075667381,-0.0180865906446343,0.0047034153894317,0.0198632516449737,-0.0052031218074262,0.0006895539700053,-0.0087973624467849,-0.0809188134223222,0.2876038351468742,-9.805658442378045,10.0,250.0,25,2019-07-15,8:20,R1,2019-07-15 08:20:05.300,0.5640286842727542
197,5.4,0.8000000119209291,52.0,-79.78275041321649,40.459041707655786,272.6556711071432,-0.0155585845932364,0.0019608444999903,-0.99573814868927,0.0908825471997261,-0.0241311681889457,0.0019530945747643,0.0201385018672332,-0.0080035123974084,-0.0052563743665814,-0.0121357589960098,-0.0765420948481187,0.2506731317192316,-9.80906386077404,10.0,250.0,25,2019-07-15,8:20,R1,2019-07-15 08:20:05.400,0.1879896474096773
197,5.6,0.8000000119209291,48.0,-79.78275038370344,40.45904171067834,272.6576155447662,-0.0155741386115551,0.0019452504348009,-0.9957367181777954,0.0908962562680244,-0.0252012585322993,0.0001028447893739,0.0203222226973601,0.0089811375364661,0.0039702327921986,0.006624043919146,-0.077581487679854,0.2624333807453513,-9.808774423599244,10.0,250.0,25,2019-07-15,8:20,R1,2019-07-15 08:20:05.600,1.5040764913940148
197,5.7,0.8999999761581421,51.0,-79.78275052929403,40.45904166433616,272.6550101326108,-0.0155248651280999,0.0019651523325592,-0.9957386255264282,0.0908833965659141,-0.0173907020205961,-0.0009116779431681,0.0231857624662609,0.0037954302970319,0.002037952421233,-0.0001443464570911,-0.0805520925018936,0.2669501903839409,-9.80971465587616,10.0,250.0,25,2019-07-15,8:20,R1,2019-07-15 08:20:05.700,0.7519983873342518
197,5.91,0.8000000119209291,53.0,-79.78275062415102,40.45904162412816,272.64797951330246,-0.0155258793383836,0.0019707141909748,-0.9957354068756104,0.090918019413948,-0.0193553582452617,0.0022540821057166,0.0219772511397009,0.0022032170090824,-0.0005906206206418,0.0066069057211279,-0.0790910286270082,0.2511226364225149,-9.808489079475404,10.0,250.0,25,2019-07-15,8:20,R1,2019-07-15 08:20:05.910,4.134239030725722
197,6.01,0.8000000119209291,52.0,-79.78275057002749,40.45904162989629,272.6522899442613,-0.0155461626127362,0.0019351384835317,-0.9957360625267028,0.0909080207347869,-0.0245162151884867,-0.000644537084185,0.0224430571974484,0.0068156491033732,0.0066035883501172,0.0061803408898413,-0.0813039530720561,0.2888088366575539,-9.804393104910847,10.0,250.0,25,2019-07-15,8:20,R1,2019-07-15 08:20:06.010,1.8792990536596208
197,6.2,0.8999999761581421,52.0,-79.7827506951758,40.45904158472532,272.6443544556648,-0.0155051983892917,0.0019572363235056,-0.9957354068756104,0.0909218788146972,-0.0225341722638818,0.0018623678781875,0.0213237207726942,-0.0107431942597031,-0.0053291893564164,-0.0101636750623583,-0.0851518138311803,0.2852127442136407,-9.80479305446148,10.0,250.0,25,2019-07-15,8:20,R1,2019-07-15 08:20:06.200,-0.3758399118841544
197,6.3,0.8000000119209291,56.0,-79.7827508123183,40.45904156462522,272.6381668471992,-0.0154594592750072,0.0019893273711204,-0.9957337975502014,0.0909475162625312,-0.0202504974730351,-0.0002772404711764,0.02045551840674,-0.0109418239444494,-0.004508358426392,-0.0070441383868455,-0.0769129499327391,0.2614713675901294,-9.808097316026688,10.0,250.0,25,2019-07-15,8:20,R1,2019-07-15 08:20:06.300,0.5639390484569708
197,6.51,0.8000000119209291,54.0,-79.78275078767338,40.45904156893816,272.6401607734412,-0.015465342439711,0.0019910230766981,-0.9957345128059388,0.0909378454089164,-0.0218488334850402,-0.00182308685188,0.0207268586092455,0.0082524316385388,0.0034025143831968,0.0013348778011277,-0.0784563681855797,0.2753676775842905,-9.807403836250304,10.0,250.0,25,2019-07-15,8:20,R1,2019-07-15 08:20:06.510,0.0
197,6.6,0.8000000119209291,53.0,-79.78275089508314,40.45904152857906,272.63455876291545,-0.0154127180576324,0.0020139019470661,-0.9957358837127686,0.0909311324357986,-0.0203917152764386,0.0014517200500389,0.0204620215533552,-0.002756213536486,-0.0039952076040208,-0.0107081867754459,-0.080158081529662,0.2515223301574588,-9.809171449542044,10.0,250.0,25,2019-07-15,8:20,R1,2019-07-15 08:20:06.600,0.940097554240678
197,6.8,0.8000000119209291,54.0,-79.78275086952293,40.45904153123016,272.636544938691,-0.0154086695984005,0.0020182265434414,-0.9957355260849,0.0909356549382209,-0.0217653888260371,0.0001193961800463,0.0205567997284967,0.0027654229197651,0.004524225834757,0.0088218599557876,-0.0760713574429974,0.2504132229834795,-9.808427683711054,10.0,250.0,25,2019-07-15,8:20,R1,2019-07-15 08:20:06.800,0.3758996387610671
197,6.91,0.699999988079071,58.0,-79.78275099422956,40.45904151915904,272.63032188874485,-0.0153876487165689,0.0020051707979291,-0.9957345128059388,0.0909503549337387,-0.0183884447755918,-0.002703444596558,0.0201803508611419,0.0100859124213457,0.0063286595977842,0.0082295136526227,-0.0839822062477469,0.2814555061608553,-9.805525710582732,10.0,250.0,25,2019-07-15,8:20,R1,2019-07-15 08:20:06.910,1.127698916283206
197,7.1,0.6000000238418579,63.0,-79.78275097013172,40.459041525279815,272.632302554816,-0.0153937702998518,0.001975794089958,-0.9957319498062134,0.0909783914685249,-0.0225926559880139,-0.003556062363343,0.0206684324014386,-0.0073598995804786,-0.0039906506426632,-0.0034942056518048,-0.0796792676579207,0.2646152144484222,-9.808390261530878,10.0,250.0,25,2019-07-15,8:20,R1,2019-07-15 08:20:07.100,0.939699349783252
197,7.2,0.6000000238418579,63.0,-79.78275106895383,40.45904149684343,272.6276357132271,-0.015379243530333,0.0019882817286998,-0.9957301020622252,0.0910005941987037,-0.0217329479387399,-0.001838343055354,0.0232318258797904,0.0017380460631102,-0.0001382670161547,0.0080367242917418,-0.0802810557838529,0.2789282116480172,-9.804873746037485,10.0,250.0,25,2019-07-15,8:20,R1,2019-07-15 08:20:07.200,0.5640585325444059
197,7.4,0.5,67.0,-79.78275123095128,40.45904144784773,272.6177796530798,-0.0153294801712036,0.0020129724871367,-0.9957291483879088,0.0910192728042602,-0.0143688329688597,0.0048322855690092,0.0214151972019035,-0.0082099679857492,-0.0065251160413026,-0.0119497319683432,-0.0829677508771419,0.2869319169782102,-9.805378945469856,10.0,250.0,25,2019-07-15,8:20,R1,2019-07-15 08:20:07.400,1.5040764913940148
197,7.5,0.5,66.0,-79.78275119068618,40.45904144689228,272.6219930626291,-0.0153615931048989,0.0019955176394432,-0.9957258105278016,0.0910508185625076,-0.0195732810494212,0.0023540124847241,0.0218610431596581,-0.0114139802753925,-0.0036301540676504,-0.0076016280800104,-0.0752901694318279,0.2575940788909793,-9.809057428836825,10.0,250.0,25,2019-07-15,8:20,R1,2019-07-15 08:20:07.500,1.3159275318677552
197,7.7,0.4000000059604645,67.0,-79.78275132271837,40.45904144685228,272.61096138556303,-0.0153413191437721,0.0019900824408978,-0.9957248568534852,0.0910640880465507,-0.0155152442193542,-0.0002547979311085,0.0181808206162653,0.0052788560278713,0.0042764730751514,0.0044719073921442,-0.0790552235674113,0.27254952063784,-9.80543741762638,10.0,250.0,25,2019-07-15,8:20,R1,2019-07-15 08:20:07.700,1.31613657593695
197,7.8,0.4000000059604645,67.0,-79.78275141858798,40.45904143962792,272.60232977059485,-0.0153325600549578,0.0019915159791708,-0.995721697807312,0.0911007449030876,-0.0175026810745096,0.000992880909569,0.0182430393363451,-0.0037764287553727,-0.0009314899798482,-0.0096577852964401,-0.0751598359085619,0.2573028875514865,-9.80846627533436,10.0,250.0,25,2019-07-15,8:20,R1,2019-07-15 08:20:07.800,1.503837462551926
197,8.0,0.4000000059604645,59.0,-79.78275139660677,40.4590414424124,272.6040974841714,-0.0153437778353691,0.0019940873607993,-0.9957199096679688,0.0911184847354888,-0.0186959431815849,-0.0005425082160036,0.0183143623148538,0.0073072449304163,0.0024758200161159,0.0092109153047204,-0.0750038157496601,0.2554838187620044,-9.808358686566354,10.0,250.0,25,2019-07-15,8:20,R1,2019-07-15 08:20:08.000,1.127878096913944
197,8.1,0.5,54.0,-79.7827515295683,40.459041415813104,272.5947642685175,-0.0153122879564762,0.0020081338007003,-0.9957185387611388,0.091137871146202,-0.0142721595589954,0.0041756875170739,0.0183921073190305,0.0044292942620813,0.0016772372182458,-0.000397340307245,-0.0802083767205476,0.2736902941390872,-9.80808971464634,10.0,250.0,25,2019-07-15,8:20,R1,2019-07-15 08:20:08.100,1.5037578671608554
197,8.3,0.5,48.0,-79.78275150961231,40.4590414151153,272.59657193396987,-0.0153422411531209,0.0020072904881089,-0.9957156181335448,0.091165117919445,-0.016781192642377,0.0031113141763813,0.0187044669321589,0.0011162312002852,-0.0004884582594968,0.0056348931975662,-0.0774260156974196,0.2519314708001912,-9.81009472489357,10.0,250.0,25,2019-07-15,8:20,R1,2019-07-15 08:20:08.300,-0.7521576994508316
197,8.41,0.6000000238418579,41.0,-79.78275164411845,40.45904141164671,272.58617234092947,-0.0153103256598114,0.0020037409849464,-0.9957147240638732,0.0911805927753448,-0.0127793696470677,0.0023505603724106,0.0183247571175233,0.0101720644161105,0.0023704040795564,0.0075386073440313,-0.0843845495022833,0.2852966883033514,-9.806363031864167,10.0,250.0,25,2019-07-15,8:20,R1,2019-07-15 08:20:08.410,-2.4430887697575074
197,8.6,0.6000000238418579,31.0,-79.78275162571339,40.45904141233914,272.5879837447107,-0.0153318047523498,0.0020220226142555,-0.995711386203766,0.0912123546004295,-0.0166712029559733,0.0014064069960206,0.0187467302022182,-0.0064839622937142,-0.0060147149488329,0.0006834681262262,-0.0809569208230823,0.2634213043749333,-9.808373889327047,10.0,250.0,25,2019-07-15,8:20,R1,2019-07-15 08:20:08.600,-0.5641182745881231
197,8.71,0.699999988079071,25.0,-79.78275175054617,40.459041440029424,272.57493030142786,-0.01532500423491,0.0020404797978699,-0.995711624622345,0.0912101566791534,-0.0138960988707601,-0.0025305465383595,0.0149264835864619,0.0033676540479063,0.0028341920115053,0.0102223753929138,-0.080909512694925,0.2846731923893094,-9.80621977508068,10.0,250.0,25,2019-07-15,8:20,R1,2019-07-15 08:20:08.710,-1.1277586128265094
197,8.9,0.8000000119209291,19.0,-79.7827518141765,40.45904146802619,272.56212390449645,-0.0153342895209789,0.0020529998000711,-0.9957115054130554,0.0912106037139892,-0.0230532120333081,-0.001711591732002,0.015696368986844,-0.0081498706713318,-0.0051351715810596,-0.0077851433306932,-0.0840420123003423,0.2777761091664433,-9.805894669890405,10.0,250.0,25,2019-07-15,8:20,R1,2019-07-15 08:20:08.900,-0.5640883808160574
197,9.01,0.8000000119209291,16.0,-79.78275175717286,40.45904148145615,272.5651547485292,-0.0153644857928156,0.0020585854072123,-0.9957084059715272,0.0912388488650322,-0.027262217735527,-0.0041480365634603,0.016122920796197,-0.0004629427858162,0.001778507954441,0.0056606386788189,-0.0787158475164324,0.2696643034368753,-9.807566388845444,10.0,250.0,25,2019-07-15,8:20,R1,2019-07-15 08:20:09.010,-0.7521974971463672
197,9.2,0.8999999761581421,11.0,-79.78275195503791,40.45904147669207,272.55159856987,-0.0153006920590996,0.0020862566307187,-0.9957098960876464,0.0912329480051994,-0.0102567792503958,-0.0002481457551406,0.0160792267589394,-0.0035651049111038,-0.0009346748702228,-0.0101788276806473,-0.0801839737314731,0.2864785567671061,-9.807246546149257,10.0,250.0,25,2019-07-15,8:20,R1,2019-07-15 08:20:09.200,-0.7522373555091214
197,9.3,1.0,7.0,-79.78275205401287,40.459041501671656,272.53681242328884,-0.015264787711203,0.0021024874877184,-0.9957056641578674,0.0912844687700271,-0.0125298860382847,0.0013535981128574,0.0128060306215167,-0.0055589182302355,-0.0026278756558895,-0.0017306957161054,-0.0751828045025467,0.2578848865069449,-9.808321849107744,10.0,250.0,25,2019-07-15,8:20,R1,2019-07-15 08:20:09.300,-0.9401473013600972
197,9.5,1.100000023841858,11.0,-79.78275203825058,40.45904150325888,272.5380486608744,-0.0152581380680203,0.0020932976622134,-0.9957053661346436,0.0912893563508987,-0.0143033428736211,-8.466250214683377e-05,0.0128182369490618,0.0031154204625636,0.0003120830224361,-0.003047386649996,-0.0798078150395304,0.2807196888886392,-9.804242831468583,10.0,250.0,25,2019-07-15,8:20,R1,2019-07-15 08:20:09.500,-0.5640883808160574
197,9.6,1.2000000476837158,13.0,-79.78275208714321,40.45904154904068,272.5236994908452,-0.0152540057897567,0.002095389412716,-0.995702862739563,0.0913174450397491,-0.0221724207059076,-0.0013143306735158,0.0117821777713374,-0.0059543964453041,-0.0017582655418664,-0.011491079814732,-0.0763056891784072,0.2545453771948814,-9.80913168847561,10.0,250.0,25,2019-07-15,8:20,R1,2019-07-15 08:20:09.600,-0.7521576994508316
197,9.8,1.2000000476837158,11.0,-79.78275206109494,40.45904155453477,272.52481178057195,-0.0152566134929656,0.0020914524793624,-0.9957022666931152,0.0913232862949371,-0.0231606380674267,-0.0028014266937282,0.0118642959989614,0.0037507123779505,0.0021891556680202,0.0014647418865934,-0.0812793673574924,0.2737763212993741,-9.806868816018104,10.0,250.0,25,2019-07-15,8:20,R1,2019-07-15 08:20:09.800,-0.7522373555091214
197,9.9,1.100000023841858,15.0,-79.78275221850288,40.45904159316386,272.51116444033386,-0.0152170490473508,0.0020885872654616,-0.9956985712051392,0.0913702398538589,-0.0134335897227542,-0.002642795806782,0.013157689848966,-0.0052261762320995,-0.0053063784725964,-0.0103794271126389,-0.0774343662522733,0.2538660586439073,-9.808252851963044,10.0,250.0,25,2019-07-15,8:20,R1,2019-07-15 08:20:09.900,-0.5641481228597749
197,10.1,1.100000023841858,16.0,-79.78275220287621,40.45904159842688,272.5124396817088,-0.0152264740318059,0.0020943663548678,-0.9956993460655212,0.0913600325584411,-0.0141084879485547,-0.0042041607265854,0.013126364352081,0.0085228811949491,0.0042957235127687,0.0061096097342669,-0.0790731854829937,0.2671667018160224,-9.80653610944748,10.0,250.0,25,2019-07-15,8:20,R1,2019-07-15 08:20:10.100,-0.5641182745881231
197,10.2,1.2000000476837158,17.0,-79.78275228695794,40.45904164439144,272.49784146857263,-0.0151940993964672,0.0020980718545615,-0.9956968426704408,0.091393232345581,-0.0171529903603782,-0.0028582676339578,0.0138336227479707,-0.0042153177782893,-0.0026156709063798,-0.0068080588243901,-0.0824599658790975,0.2567725450918078,-9.80632327079773,10.0,250.0,25,2019-07-15,8:20,R1,2019-07-15 08:20:10.200,-1.127997581001379
197,10.4,1.100000023841858,19.0,-79.78275244826251,40.459041709655,272.47918217492105,-0.0151769462972879,0.0021157434675842,-0.9956972002983092,0.0913916081190109,-0.0072662390694574,-0.0050716764835709,0.0103754556611676,0.0095721315592527,0.0039523621089756,0.0112774707376956,-0.0756662276247516,0.2585585222952068,-9.806692814826963,10.0,250.0,25,2019-07-15,8:20,R1,2019-07-15 08:20:10.400,-0.5641182745881231
197,10.5,1.100000023841858,20.0,-79.7827524259842,40.459041723595405,272.4812784106732,-0.0151787223294377,0.0021178838796913,-0.9956953525543212,0.0914108678698539,-0.0126417170878295,-0.0071624264115024,0.0109700841462822,0.0036086479667574,0.0001935770415002,-0.0041996990330517,-0.0822840651869774,0.2654853532277048,-9.80803065776825,10.0,250.0,25,2019-07-15,8:20,R1,2019-07-15 08:20:10.500,-0.7520382456970063
197,10.7,1.2000000476837158,22.0,-79.78275253973834,40.45904177025643,272.464837959528,-0.015150811523199,0.0021234126761555,-0.9956946969032288,0.0914229750633239,-0.0094266719015029,-0.0043522454936692,0.012256409960419,0.0042686853557825,0.0029817384202033,0.0110484985634684,-0.0780407956056296,0.2511939359083772,-9.808351085186006,10.0,250.0,25,2019-07-15,8:20,R1,2019-07-15 08:20:10.700,-0.9402468714329596
197,10.8,1.2999999523162842,21.0,-79.78275259805469,40.45904183404896,272.44817631554605,-0.0151439867913723,0.002138243522495,-0.995692789554596,0.0914441049098968,-0.0148330897705533,-0.0023239704826137,0.0130563857034573,0.0047722379676997,0.0039246510714292,0.0029250013176351,-0.0810213955119252,0.2770637538470328,-9.806737838387493,10.0,250.0,25,2019-07-15,8:20,R1,2019-07-15 08:20:10.800,-0.7521178410880772
197,11.0,1.2999999523162842,20.0,-79.78275257899942,40.45904183914772,272.4494456113577,-0.015159597620368,0.0021413264330476,-0.9956907629966736,0.0914639607071876,-0.0173740671867208,-0.0031954651541469,0.0131796817943378,-0.0011430029990151,0.0012959631858393,0.0087873442098498,-0.0789650850836187,0.2524957088381052,-9.80871712088585,10.0,250.0,25,2019-07-15,8:20,R1,2019-07-15 08:20:11.000,-0.7520780433925418
197,11.11,1.2000000476837158,23.0,-79.78275263494581,40.45904188605808,272.4303715885878,-0.0151350470259785,0.0021301682572811,-0.995689570903778,0.0914808884263038,-0.0195437691097019,0.0016885619852754,0.0106844553108452,0.0088152438402175,0.0050113415345549,0.0087760929018259,-0.0821678883209824,0.2868413947708905,-9.806051959991455,10.0,250.0,25,2019-07-15,8:20,R1,2019-07-15 08:20:11.110,-0.9401473013600972
197,11.3,1.2999999523162842,21.0,-79.78275260922186,40.45904188845609,272.43139508974554,-0.0151451956480741,0.0021474214736372,-0.9956883788108826,0.0914912149310112,-0.0231454506614972,0.0009648362202022,0.0110434698435663,-0.0066064279526472,-0.0014441666426137,0.0007510339492,-0.0781170652247965,0.2628821545466781,-9.809374932646753,10.0,250.0,25,2019-07-15,8:20,R1,2019-07-15 08:20:11.300,-0.7521576994508316
197,11.4,1.399999976158142,17.0,-79.78275275971552,40.45904194634739,272.41451109063627,-0.0151030328124761,0.002167786238715,-0.9956879019737244,0.0915028601884842,-0.0116156233446596,0.0001514441733963,0.0124521992926612,0.0063387206755578,0.002067640889436,0.0114917950704693,-0.080667319195345,0.284704292267561,-9.805137455463411,10.0,250.0,25,2019-07-15,8:20,R1,2019-07-15 08:20:11.400,-0.7521576994508316
197,11.6,1.399999976158142,9.0,-79.78275274355934,40.45904194877761,272.41573832046987,-0.0150942746549844,0.0021601119078695,-0.995688021183014,0.0915042012929916,-0.015569117882676,-0.0005325337583761,0.0128930092535845,-0.0117062050849199,-0.0061630620621144,-0.0077171535231173,-0.0835097146779298,0.2756492941081524,-9.806534940004347,10.0,250.0,25,2019-07-15,8:20,R1,2019-07-15 08:20:11.600,-0.7521178410880772
197,11.7,1.399999976158142,10.0,-79.78275286209518,40.459041978188246,272.4015181423426,-0.0150971049442887,0.00218993332237,-0.9956857562065125,0.0915273129940033,-0.0095516763063382,0.0043296824777635,0.0162644012422022,-0.0011906630825251,0.0009128752863034,0.0090415151789784,-0.0805869839340448,0.2742253691889346,-9.80678578555584,10.0,250.0,25,2019-07-15,8:20,R1,2019-07-15 08:20:11.700,-1.1280573685455106
197,11.9,1.399999976158142,5.0,-79.7827529358978,40.45904206534121,272.38286765527727,-0.0150870308279991,0.0021887649782001,-0.9956859350204468,0.0915269777178764,-0.0147027256869637,0.0019730678421263,0.0158812011861488,-0.0025521824136376,-0.0035073652397841,-0.0116744292899966,-0.083913592826575,0.2863879797421396,-9.804915261268617,10.0,250.0,25,2019-07-15,8:20,R1,2019-07-15 08:20:11.900,-0.7521974971463672
197,12.0,1.399999976158142,6.0,-79.78275289736602,40.45904206888388,272.38596460831167,-0.0150758381932973,0.0021747967693954,-0.9956857562065125,0.0915307104587555,-0.0184942849435606,7.4357516044721e-05,0.0161398336195569,-0.0049440180882811,-0.0029404084198176,0.0017919270321726,-0.0776155659835785,0.2613993372023105,-9.807979786992073,10.0,250.0,25,2019-07-15,8:20,R1,2019-07-15 08:20:12.000,-0.5641182745881231
197,12.2,1.399999976158142,2.0,-79.78275302419574,40.459042136060745,272.3670642883778,-0.0150428833439946,0.0021698197815567,-0.9956859946250916,0.0915343016386032,-0.0124267520903239,0.0009919819479926,0.0158342919276685,0.0006893555400893,-0.0040105069056153,-0.0065165348351001,-0.0835890997666865,0.2826677436009049,-9.80340200185776,10.0,250.0,25,2019-07-15,8:20,R1,2019-07-15 08:20:12.200,-1.1277586128265094
197,12.3,1.2999999523162842,359.0,-79.78275310834145,40.45904220480469,272.35156728935243,-0.0150128453969955,0.0021699715871363,-0.995686173439026,0.0915367603302002,-0.0136170512451443,0.00188041451381,0.0189946893284521,-0.008372482843697,-0.0046667638234794,-0.0117505826056003,-0.0767641931120306,0.2551648348756135,-9.80741436123848,10.0,250.0,25,2019-07-15,8:20,R1,2019-07-15 08:20:12.300,-1.128117065088814
197,12.5,1.2000000476837158,359.0,-79.7827530915869,40.45904220599873,272.35341929507257,-0.015010979026556,0.0021582662593573,-0.9956868290901184,0.0915309935808181,-0.014284079697526,0.0005030070500695,0.0189817911869207,0.0083721028640866,0.0012250113068148,-5.470454561873339e-05,-0.0810576756577938,0.2774586419016123,-9.805861340761185,10.0,250.0,25,2019-07-15,8:20,R1,2019-07-15 08:20:12.500,-0.7521178410880772
197,12.6,1.2000000476837158,1.0,-79.7827532405358,40.45904228718981,272.3364293189049,-0.014983563683927,0.0021201171912252,-0.99568772315979,0.0915259569883346,-0.0067588128123751,-0.0038645775359193,0.0180129186492761,-0.008794599212706,-0.0065484377555549,-0.010077329352498,-0.0778499662410467,0.252185075506568,-9.808865640163422,10.0,250.0,25,2019-07-15,8:20,R1,2019-07-15 08:20:12.600,-0.5641182745881231
197,12.81,1.2000000476837158,5.0,-79.78275323306599,40.459042292260655,272.338205149889,-0.0149898836389184,0.0021075659897178,-0.9956879019737244,0.0915234461426734,-0.0068361511457766,-0.0053060862084534,0.017860133953851,0.0051580760627985,0.0046054241247475,0.0066463658586144,-0.0802895616553723,0.2655798223055899,-9.807009149193764,10.0,250.0,25,2019-07-15,8:20,R1,2019-07-15 08:20:12.810,-1.691906826687115
197,12.9,1.100000023841858,4.0,-79.78275328719744,40.45904234661519,272.32147654008867,-0.0149952452629804,0.002119201933965,-0.9956856966018676,0.0915457904338836,-0.013919572989213,0.000514016594281,0.0175025518307002,-0.0048518129624426,-0.0033801617100834,-0.010298584587872,-0.0794651682022959,0.2570027974806726,-9.80877383887768,10.0,250.0,25,2019-07-15,8:20,R1,2019-07-15 08:20:12.900,-0.9402468714329596
197,13.1,1.0,6.0,-79.78275327002284,40.4590423489971,272.32317992162706,-0.0150129999965429,0.0021172408014535,-0.9956861138343812,0.0915385410189628,-0.014274670285231,-0.0008433019956335,0.0174271380411917,0.0098707973957061,0.0042308582924306,0.0096359588205814,-0.0780856638494879,0.2592099203914404,-9.806855952143671,10.0,250.0,25,2019-07-15,8:20,R1,2019-07-15 08:20:13.100,-1.691727600555963
197,13.2,1.0,7.0,-79.78275337964452,40.45904241449951,272.3057493479252,-0.0149686019867658,0.0021315997000783,-0.995686411857605,0.0915421321988105,-0.0120286796209523,-0.000614698295746,0.0169711749512656,0.0006214710883796,0.0001969922159332,-0.0054265605285763,-0.0811641223914921,0.2637537734024227,-9.807795599699023,10.0,250.0,25,2019-07-15,8:20,R1,2019-07-15 08:20:13.200,-1.3159971778349424
197,13.4,1.0,6.0,-79.782753458441,40.45904249081941,272.2860024483204,-0.0149709526449441,0.002127171261236,-0.995685338973999,0.0915538668632507,-0.0137645973438727,0.0008078156131359,0.015691593583235,0.0050670048221945,0.0008961169514805,0.0104631325230002,-0.0738822329929098,0.255319110006094,-9.808568016886712,10.0,250.0,25,2019-07-15,8:20,R1,2019-07-15 08:20:13.400,-1.316275974038957
197,13.5,1.0,9.0,-79.78275341955974,40.459042496644685,272.2890718789101,-0.014968529343605,0.0021145397331565,-0.995685875415802,0.0915492624044418,-0.0177277639484074,-0.0015970272949128,0.0158607256739905,0.0043788780458271,0.0026533189229667,0.0007013863069005,-0.0816429728083312,0.2763680448196829,-9.806420919299129,10.0,250.0,25,2019-07-15,8:20,R1,2019-07-15 08:20:13.500,-0.7520780433925418
197,13.7,1.100000023841858,9.0,-79.78275353751266,40.45904255305451,272.2705318541527,-0.0149578377604484,0.0021362428087741,-0.9956844449043274,0.0915657207369804,-0.0128850094802789,0.002541062299168,0.0155901643224652,-0.00113093375694,0.0015440416755154,0.0052897296845912,-0.0779181685298681,0.2522261156514287,-9.807890324592591,10.0,250.0,25,2019-07-15,8:20,R1,2019-07-15 08:20:13.700,-1.5040764913940148
197,13.8,1.100000023841858,12.0,-79.78275367576161,40.45904264303008,272.2533842535019,-0.0149054322391748,0.0021321075037121,-0.995686650276184,0.0915505439043045,-0.0038810823455545,-0.0029056468849533,0.0150505522669942,0.009667563252151,0.0036645669024437,0.0088680321350693,-0.0829102106206119,0.2867825206182897,-9.80441532433033,10.0,250.0,25,2019-07-15,8:20,R1,2019-07-15 08:20:13.800,-1.503837462551926
197,14.0,1.100000023841858,13.0,-79.78275366926762,40.459042646765454,272.25488575410844,-0.0149276945739984,0.0021320560481399,-0.9956853985786438,0.0915598198771476,-0.0071176107228321,-0.0036278510246343,0.015249422531153,-0.0060706990770995,-0.0012802782002836,0.0020194898825138,-0.0827579911518842,0.2632950958795845,-9.806425012350084,10.0,250.0,25,2019-07-15,8:20,R1,2019-07-15 08:20:14.000,-0.7521178410880772
197,14.1,1.100000023841858,14.0,-79.78275373046866,40.4590427253014,272.2369883568287,-0.0149291828274726,0.0021402109414339,-0.9956841468811036,0.0915735960006714,-0.0116957493891954,-0.0021285595064348,0.0150652601212003,0.0061757783405482,0.0041536586359143,0.0098155690357089,-0.0819391708262264,0.2820897828787565,-9.80582625746727,10.0,250.0,25,2019-07-15,8:20,R1,2019-07-15 08:20:14.100,-0.94019712431354
197,14.3,1.100000023841858,15.0,-79.78275371507695,40.45904272971365,272.23846911501886,-0.0149166481569409,0.0021456177346408,-0.9956835508346558,0.0915813446044922,-0.0150347390780774,-0.0029034320310501,0.0152603837183656,-0.0084910141304135,-0.0033815717324614,-0.0091416733339428,-0.0843375981878489,0.2750481272488833,-9.805297669172289,10.0,250.0,25,2019-07-15,8:20,R1,2019-07-15 08:20:14.300,-0.9402966943864024
197,14.4,1.100000023841858,17.0,-79.78275388236321,40.459042807567634,272.2201388986111,-0.0148854972794652,0.002153385663405,-0.9956815242767334,0.091609202325344,-0.0041999125968968,-0.0036830436440605,0.0144891303027295,-0.0014384159585461,0.0021826650481671,0.0058988234959542,-0.0793401474226266,0.2726862175762653,-9.807103289365768,10.0,250.0,25,2019-07-15,8:20,R1,2019-07-15 08:20:14.400,-0.5640585325444059
197,14.6,1.100000023841858,18.0,-79.78275387658839,40.45904281215298,272.22158678483964,-0.0148826846852898,0.0021500617731362,-0.9956807494163512,0.0916182324290275,-0.0070867944108187,-0.0045387396594632,0.0147755820565407,-0.0069728270173072,-0.0034230842720717,-0.0106104090809822,-0.0823749345727264,0.2859303985722363,-9.804901227951053,10.0,250.0,25,2019-07-15,8:20,R1,2019-07-15 08:20:14.600,8.831769769581511
197,14.7,1.2000000476837158,19.0,-79.78275393505886,40.45904287546403,272.2040859670639,-0.0148592488840222,0.0021559353917837,-0.995678186416626,0.0916496738791465,-0.010952133129309,-0.0008906958536571,0.0146612275647002,0.003140723099932,0.0059912167489528,-0.0008136883261613,-0.0753105981415137,0.2553159488551319,-9.808254021406174,10.0,250.0,25,2019-07-15,8:20,R1,2019-07-15 08:20:14.700,9.944455477907182
197,14.9,1.2000000476837158,17.0,-79.78275407746884,40.45904296499622,272.1851628930569,-0.0148013941943645,0.0021519288420677,-0.9956790804862976,0.0916495025157928,-0.0046003574826738,-0.0036733476654023,0.0148433515038485,-0.00177556311246,0.0001755553530529,-0.0042625861242413,-0.0783298216480761,0.2774588611721993,-9.805319888591765,10.0,250.0,25,2019-07-15,8:20,R1,2019-07-15 08:20:14.900,5.825518810279959
197,15.0,1.2000000476837158,18.0,-79.78275406471415,40.459042975134174,272.1880791397095,-0.0148252444341778,0.0021517537534236,-0.99567711353302,0.0916666612029075,-0.0079944729417071,-0.0053125653576305,0.0149487977632644,-0.0091644506901502,-0.0055010868236422,-0.0044723418541252,-0.0724700070731341,0.2562690815515816,-9.805878297686576,10.0,250.0,25,2019-07-15,8:20,R1,2019-07-15 08:20:15.000,6.387924701116162
197,15.2,1.2000000476837158,16.0,-79.78275411754085,40.45904305110517,272.1687433333397,-0.0148238223046064,0.002164872130379,-0.9956734776496888,0.0917059853672981,-0.0144866716990978,-0.0022019613149975,0.0147267640925201,0.0019867713563144,0.0041192262433469,-0.0025972656439989,-0.0758357649017125,0.2803981651179492,-9.806850689649584,10.0,250.0,25,2019-07-15,8:20,R1,2019-07-15 08:20:15.200,6.010252347814915
197,15.31,1.2000000476837158,16.0,-79.78275429394171,40.45904303373428,272.1594463796616,-0.0147459292784333,0.0022133418824523,-0.9956725835800172,0.0917272940278053,0.0027042922321385,0.0133040340838922,0.0275658548327128,-0.0051686074584722,-0.001572783337906,-0.011998813599348,-0.0759000431606546,0.2502471986040473,-9.811130851507189,10.0,250.0,25,2019-07-15,8:20,R1,2019-07-15 08:20:15.310,6.576501643519577
197,15.5,1.2000000476837158,17.0,-79.7827542930892,40.45904302162316,272.1621897728444,-0.0147343846037983,0.0022165679838508,-0.9956768751144408,0.0916822701692581,0.0022364912152381,0.0126312043566091,0.0274262355179125,0.0075765280053019,0.0065592750906944,0.0006870048819109,-0.0741740593034774,0.2589920019730926,-9.80704657137394,10.0,250.0,25,2019-07-15,8:20,R1,2019-07-15 08:20:15.500,8.26672562816907
197,15.6,1.2000000476837158,16.0,-79.78275437696654,40.45904305496885,272.15351842951776,-0.0147374011576175,0.0022231151815503,-0.995672345161438,0.0917302817106247,-0.0019099627487901,0.0148292260315513,0.0344259917522689,-0.0051164338365197,-0.0011040231911465,-0.0121975652873516,-0.0784296171739697,0.259531096983701,-9.806330872178078,10.0,250.0,25,2019-07-15,8:20,R1,2019-07-15 08:20:15.600,8.642486236071365
197,15.8,1.2000000476837158,18.0,-79.78275437048488,40.45904304278097,272.1569462926388,-0.0147515349090099,0.0022157202474772,-0.9956745505332948,0.0917048826813697,-0.0015286937253587,0.0137309310516834,0.0343768745283991,0.006409699562937,0.0008045675349421,0.0196294467896223,-0.0639187602465972,0.2743925995565951,-9.81244179725647,10.0,250.0,25,2019-07-15,8:20,R1,2019-07-15 08:20:15.800,207.18565173854583
197,15.9,1.2000000476837158,18.0,-79.78275450671582,40.45904311166717,272.1449920744896,-0.0147310951724648,0.0020549793262034,-0.9956785440444946,0.0916683599352836,0.0002065525157735,0.0091506118384241,0.034085890009846,0.0030658841133117,-0.0085521098226308,0.0025417662691324,-0.1047187992464751,0.2285099551454186,-9.799510679841044,10.0,250.0,25,2019-07-15,8:20,R1,2019-07-15 08:20:15.900,21.38542036411582
197,16.1,1.100000023841858,18.0,-79.7827545033104,40.45904310513093,272.1484095962048,-0.0147980712354183,0.0020332082640379,-0.9956698417663574,0.0917528495192527,-0.0022456602292629,0.007027881930112,0.0340684002565427,0.0019100562203675,0.0083816926926374,0.0089626936241984,-0.0702806998975575,0.2331358701735735,-9.795748581290246,10.0,250.0,25,2019-07-15,8:20,R1,2019-07-15 08:20:16.100,4.697003373861548
197,16.21,1.100000023841858,18.0,-79.78275457297259,40.45904318049915,272.13661094617845,-0.0148386945948004,0.0019093449227511,-0.995669424533844,0.0917526558041572,-0.005990073653188,0.0044599922890009,0.0348917197703154,0.0143536645919084,0.0345091149210929,0.0085223158821463,-0.0905043184943497,0.2749534389004111,-9.818735740184785,10.0,250.0,25,2019-07-15,8:20,R1,2019-07-15 08:20:16.210,78.07335001221237
197,16.4,1.100000023841858,20.0,-79.78275473217364,40.45904320238374,272.12267216157915,-0.0148151777684688,0.0018708443967625,-0.9956735372543336,0.0917127206921577,-0.0030437115432028,0.0133349889148298,0.0373625169409177,-0.0204899050295352,-0.0062510347925126,-0.0011692161206156,-0.0836688137613237,0.3143360077589749,-9.791691783070563,10.0,250.0,25,2019-07-15,8:20,R1,2019-07-15 08:20:16.400,6.198401389185278
197,16.5,1.100000023841858,21.0,-79.78275472395947,40.45904317769615,272.13014011693,-0.0149307372048497,0.0019024757202714,-0.9956708550453186,0.0917228013277053,-0.0006900603289138,0.0134617837923942,0.037031786085993,0.010197589173913,0.0029236485715955,0.0016764804022386,-0.0542694108886644,0.2441464878804981,-9.81460175871849,10.0,250.0,25,2019-07-15,8:20,R1,2019-07-15 08:20:16.500,4.696007673095608
197,16.6,1.100000023841858,22.0,-79.7827547531052,40.459043258361184,272.11553992939,-0.0149440951645374,0.001846679020673,-0.9956649541854858,0.0917859748005867,-0.012609032273609,0.0125833932687568,0.0384817584431214,-0.0064280731603503,0.0005995234823785,-0.0063078752718865,-0.0602258963836357,0.2872797714918852,-9.815840198993683,10.0,250.0,25,2019-07-15,8:20,R1,2019-07-15 08:20:16.600,10.140688563169537
197,16.81,1.100000023841858,26.0,-79.78275479295688,40.45904329913842,272.1053036065102,-0.0149441743269562,0.0018488991772755,-0.9956663250923156,0.0917703583836555,-0.0157931456372265,0.0170970537436751,0.0408449028295323,-0.0054778638295829,-0.0178467705845832,0.0183779653161764,-0.0644367276225239,0.2635728568956256,-9.81018828034401,10.0,250.0,25,2019-07-15,8:20,R1,2019-07-15 08:20:16.810,101.7236653870614
197,17.0,1.100000023841858,23.0,-79.78275476902544,40.459043287567305,272.10933842372896,-0.0148844001814723,0.0019015003927052,-0.9956663250923156,0.0917797535657882,-0.0185493452769844,0.0160469726786564,0.0405280420352206,-0.0084659215062856,0.0001348797086393,-0.0089056910946965,-0.072650338858366,0.2944734547287226,-9.808149940967562,10.0,250.0,25,2019-07-15,8:20,R1,2019-07-15 08:20:17.000,140.0304351617788
197,17.1,1.100000023841858,22.0,-79.78275484581944,40.45904334073639,272.0996078462601,-0.0146484011784195,0.0019668655004352,-0.9956754446029664,0.0917170196771621,-0.0167170653023076,0.0117648030627405,0.0427046519299082,-0.0378373898565769,0.0090943938121199,0.0161213185638189,-0.0535166092822328,0.3158300444483757,-9.822550463676452,10.0,250.0,25,2019-07-15,8:20,R1,2019-07-15 08:20:17.100,163.78919403913642
197,17.3,1.100000023841858,19.0,-79.7827548226268,40.45904333232843,272.1038662405014,-0.0146832801401615,0.0017818736378103,-0.9956696629524232,0.0917778313159942,-0.0193192769132529,0.013156808533487,0.0415365809168073,-0.0010600356617942,-0.0026749873068183,-0.0024508303031325,-0.0817536222282797,0.1857944368198514,-9.787998681664469,10.0,250.0,25,2019-07-15,8:20,R1,2019-07-15 08:20:17.300,223.0529824366677
197,17.4,1.2000000476837158,18.0,-79.78275489383712,40.45904340395591,272.0914584608078,-0.0146282082423567,0.0014928036835044,-0.9957548379898072,0.0908634588122368,-0.0276141909921569,0.0056099814392379,0.0412519990440935,0.021939817816019,0.0299149360507726,0.0338625758886337,-0.1282244965340942,0.1772873958572745,-9.767783687710764,10.0,250.0,25,2019-07-15,8:20,R1,2019-07-15 08:20:17.400,254.5413808099329
197,17.6,1.2000000476837158,16.0,-79.78275487390405,40.459043400366,272.0955802412033,-0.0144018698483705,0.0012060214066877,-0.9957974553108216,0.090435728430748,-0.0102817560185976,0.0080324230163631,0.0435389084336421,0.0212264116853475,0.0272004548460245,-0.0137053625658154,-0.0592430388182401,0.3389350978285074,-9.842764288187029,10.0,250.0,25,2019-07-15,8:20,R1,2019-07-15 08:20:17.600,324.5733588539224
197,17.71,1.2000000476837158,14.0,-79.78275498511672,40.4590434556215,272.0824730606079,-0.0130502441897988,-0.0004823957278858,-0.9958369135856628,0.0902130901813507,-0.0049132407023686,-0.0011353432683612,0.0413333819892595,0.0838873013854026,0.0272745713591575,-0.0204847678542137,-0.0777202950976789,0.4811064188182354,-9.841020648479462,10.0,250.0,25,2019-07-15,8:20,R1,2019-07-15 08:20:17.710,378.33554704136986
197,17.9,1.2999999523162842,13.0,-79.78275513338595,40.45904351258821,272.0632954449654,-0.0121806375682353,-0.0022625708952546,-0.9958789944648744,0.0898421332240104,0.0014246443740264,-0.0001747738169565,0.0381642420264308,0.0141813810914754,0.0688376799225807,0.0244502387940883,-0.0318948163557797,0.1700657190755009,-9.821624264717103,10.0,250.0,25,2019-07-15,8:20,R1,2019-07-15 08:20:17.900,433.4130680463786
197,18.01,1.2999999523162842,11.0,-79.78275510816572,40.45904351184049,272.0703453631401,-0.0102051878347992,-0.0051930132322013,-0.9960201978683472,0.0883891955018043,-0.0096003138579621,0.0070536762517927,0.044258994824282,0.0666110292077064,-0.0092369634658098,-0.028380898758769,0.0478223165916278,0.1471586487628519,-9.834192270040512,10.0,250.0,25,2019-07-15,8:20,R1,2019-07-15 08:20:18.010,486.3208051952388
197,18.21,1.2999999523162842,9.0,-79.78275518001574,40.459043627359534,272.0539251179695,-0.0077804666943848,-0.0034880880266428,-0.9962466955184937,0.0861389562487602,-0.0220837679581884,0.0116853103700971,0.0633747342236794,0.013366381637752,-0.0539912767708301,0.0352891571819782,0.1718025065772235,0.075318880174309,-10.053040688037871,10.0,250.0,25,2019-07-15,8:20,R1,2019-07-15 08:20:18.210,572.469888116175
197,18.3,1.2999999523162842,8.0,-79.78275523106936,40.459043748558656,272.0473753423691,-0.0049882582388818,0.0059389593079686,-0.9966199398040771,0.0817837640643119,-0.0105667500425555,0.0557592184474449,0.2310911932387367,0.0479696355760097,-0.1191632598638534,0.0201515443623066,0.2373800716549158,0.0753565398976206,-10.480005544424056,10.0,250.0,25,2019-07-15,8:20,R1,2019-07-15 08:20:18.300,595.0544661613094
197,18.4,1.2999999523162842,8.0,-79.78275518604462,40.45904369857155,272.0741331787109,-0.0061377240344882,0.0090274987742304,-0.996608316898346,0.0815639644861221,-0.0253047371235491,0.0587928498962526,0.2901216971439542,0.0360053107142448,0.0966634452342987,-0.0775452479720115,0.0290854233806021,0.1295990216173231,-10.448490221500398,10.0,250.0,25,2019-07-15,8:20,R1,2019-07-15 08:20:18.400,460.501694574661
197,18.61,1.2999999523162842,8.0,-79.78275508609828,40.45904349735525,272.09909208726884,-0.002877072431147,0.0002003260888159,-0.9964600205421448,0.084018588066101,-0.0322042235529357,0.1063439249524779,0.2298842219809283,-0.0130863357335329,0.0337252356112003,-0.0244335904717445,0.1365491317771375,0.0921301824878901,-9.923680397272111,10.0,250.0,25,2019-07-15,8:20,R1,2019-07-15 08:20:18.610,428.40137007162775
197,18.8,1.399999976158142,9.0,-79.78275503329706,40.45904339456031,272.11854853343965,-0.0028611179441213,-0.0017442664830014,-0.9963701367378236,0.0850617066025734,-0.0198543758742513,0.1274104528366821,0.165650371491112,0.0457836240530014,0.0585883222520351,0.055978674441576,0.2131388311833143,-0.0267226914432831,-9.36636063873768,10.0,250.0,25,2019-07-15,8:20,R1,2019-07-15 08:20:18.800,458.30169186228886
197,18.9,1.399999976158142,8.0,-79.78275506402048,40.459043302411104,272.1134609193802,-0.0036940246354788,-0.0083879427984356,-0.9964099526405334,0.0841627195477485,-0.0192465558869065,0.1109278928448077,0.0457074596316872,0.001224159146659,0.1051462888717651,0.0366027988493442,0.0400934029882773,0.0080684175621718,-9.304163221120834,10.0,250.0,25,2019-07-15,8:20,R1,2019-07-15 08:20:18.900,483.02892806968526
197,19.1,1.399999976158142,12.0,-79.78275501512786,40.459043204224855,272.11682756853105,-0.0033779710065573,-0.0108971074223518,-0.9964417815208436,0.0835085660219192,-0.0182972227935417,0.1158281929134137,0.027677318736034,0.0077807591296732,0.036639854311943,0.0593359172344207,0.1240047071781009,-0.0435977352596819,-9.595853912830352,10.0,250.0,25,2019-07-15,8:20,R1,2019-07-15 08:20:19.100,522.2626337856345
197,19.21,1.399999976158142,9.0,-79.78275520440405,40.45904297716476,272.1208858103752,-0.0009453073143959,-0.0118076680228114,-0.9964658617973328,0.0831590443849563,0.002722528174716,0.1255549054409429,0.06995903652275,-0.0642091482877731,0.0005939415423199,-0.0150106623768806,0.1792030533403158,0.0902332360949367,-9.815253138542175,10.0,250.0,25,2019-07-15,8:20,R1,2019-07-15 08:20:19.210,493.66695230937694
197,19.4,1.399999976158142,12.0,-79.7827552511079,40.45904287012935,272.1267837495804,-0.0028584017418324,-0.0131843946874141,-0.9963961243629456,0.0837428867816925,0.0030199381472236,0.1236161540982495,0.0989152144198866,-0.0627512037754058,0.0246584750711917,0.0129994004964828,0.1858959225565195,-0.0714896025974303,-9.954446107149122,10.0,250.0,25,2019-07-15,8:20,R1,2019-07-15 08:20:19.400,516.4503764580403
197,19.51,1.399999976158142,13.0,-79.78275520167657,40.45904266075552,272.15013038229944,-0.0087781632319092,-0.0141162741929292,-0.9962510466575624,0.0848975032567977,-0.018042775391383,0.1147826006978883,0.1241469127608415,-0.1131593659520149,-0.0541108101606369,-0.0666859447956085,0.2528760884888469,0.0890088748186826,-9.971265038251875,10.0,250.0,25,2019-07-15,8:20,R1,2019-07-15 08:20:19.510,516.6008328407771
197,19.7,1.399999976158142,15.0,-79.78275515355608,40.459042601155424,272.1488760621548,-0.0099938986822962,-0.0175204258412122,-0.9961614608764648,0.0851799175143241,-0.0397157435334139,0.1005975910869391,0.1253927740452908,-0.0522721000015735,0.062222309410572,0.0220810081809759,0.0992842051573097,0.3566081609576941,-9.869655632972718,10.0,250.0,25,2019-07-15,8:20,R1,2019-07-15 08:20:19.700,516.2249155511745
197,19.8,1.399999976158142,16.0,-79.7827552075081,40.459042364434296,272.1730342419148,-0.0044054915197193,-0.0199007615447044,-0.9961612224578856,0.0851326435804367,-0.0201910649978675,0.0960574110351167,0.1533680273090421,0.0541439168155193,0.0030258405022323,-0.0211571045219898,0.1667787798866629,0.2681788365729153,-9.874302999973295,10.0,250.0,25,2019-07-15,8:20,R1,2019-07-15 08:20:19.800,514.7819616808993
197,20.0,1.399999976158142,17.0,-79.78275516195114,40.45904229508408,272.1890402944088,-0.0010885830270126,-0.0205840803682804,-0.9961549043655396,0.0851505547761917,-0.0174915430447767,0.0813552721759776,0.1621364524988749,0.0854557305574417,0.0317458026111125,0.0061494633555412,0.2596639384143054,0.0403496983274817,-9.911650335788726,10.0,250.0,25,2019-07-15,8:20,R1,2019-07-15 08:20:20.000,533.0318038580663
197,20.1,1.399999976158142,17.0,-79.78275514350116,40.45904217529933,272.2159865112305,-0.0028523642104119,-0.0241001956164836,-0.9960896372795104,0.0849503502249717,-0.0270973659507957,0.0497721421198592,0.182663886749703,-0.0061240927316248,0.0887413397431373,0.0811754241585731,0.3181366248428822,-0.0310991564858704,-9.915583173036577,10.0,250.0,25,2019-07-15,8:20,R1,2019-07-15 08:20:20.100,543.3052809044311
197,20.3,1.399999976158142,17.0,-79.78275509951546,40.45904214740185,272.2349512190819,-0.0045297821052372,-0.0241472125053405,-0.9960609674453736,0.0852006748318672,-0.0360454198258761,0.0423321045464385,0.1941948666660252,-0.0862579718232154,-0.0792179405689239,-0.0634142309427261,0.2740085471235216,0.1602743006497621,-9.891367514133456,10.0,250.0,25,2019-07-15,8:20,R1,2019-07-15 08:20:20.300,163.5572005426111
197,20.4,1.2999999523162842,19.0,-79.78275508484838,40.45904217054973,272.2454301328659,-0.002538927597925,-0.0180588364601135,-0.996222734451294,0.0848988816142082,-0.0394307969892576,0.0169826610317161,0.0117191699948124,-0.0383480302989482,-0.2101038247346878,0.0085996352136135,0.2171443383581936,0.1558949736692011,-9.494835076332093,10.0,250.0,25,2019-07-15,8:20,R1,2019-07-15 08:20:20.400,480.775631974575
197,20.6,1.399999976158142,24.0,-79.78275504317806,40.45904216130228,272.2440524609089,-0.0035114588681608,-0.0070914551615715,-0.9963644742965698,0.0848255157470703,-0.0245839882240687,0.0192270695636707,-0.0230323715396053,0.0906960368156433,-0.2403508275747299,0.050087496638298,0.3151639004051685,0.0460940166888758,-9.350257991552354,10.0,250.0,25,2019-07-15,8:20,R1,2019-07-15 08:20:20.600,593.3943540187175
197,20.7,1.399999976158142,24.0,-79.78275518173236,40.45904190167456,272.26291309905054,-0.0036440410185605,0.0003929103258997,-0.996413230895996,0.0845423713326454,-0.0045653019454476,0.0322189421412611,0.0652962542508197,0.0644958093762397,-0.056837547570467,0.0264724344015121,0.1120435057953,-0.0200322684645652,-10.21290707230568,10.0,250.0,25,2019-07-15,8:20,R1,2019-07-15 08:20:20.700,640.694825156792
197,20.9,1.399999976158142,22.0,-79.78275517862569,40.45904182401917,272.2893518717289,-0.0033216557931154,-0.0079503562301397,-0.9964083433151244,0.0842396020889282,-0.0101157554902656,0.055679482864079,0.304051790703401,0.0102227199822664,0.1131825670599937,-0.0064770681783556,0.1365033407695591,0.1124143654480576,-10.947829574346542,10.0,250.0,25,2019-07-15,8:20,R1,2019-07-15 08:20:20.900,692.1154271222478
197,21.0,1.399999976158142,21.0,-79.78275515204571,40.459041774501465,272.3268424780369,-0.00376832135953,-0.0129393236711621,-0.996353805065155,0.0842465311288833,-0.0062997469019406,0.0676383573008043,0.4486532153053671,0.0077125034295022,0.0629199743270874,0.0422879494726657,0.2801141183450818,0.1706268873251974,-11.206553664207457,10.0,250.0,25,2019-07-15,8:20,R1,2019-07-15 08:20:21.000,774.9979980364442
197,21.2,1.399999976158142,22.0,-79.7827552073187,40.45904161504336,272.43187285077573,-0.0029904213733971,-0.016102023422718,-0.99622905254364,0.0852026939392089,-0.0020546113881078,0.0778871696240673,0.8775588917741365,-0.0475869141519069,-0.0727889910340309,-0.1322593092918396,0.3003904167003929,0.2524717717990279,-12.300209863185882,10.0,250.0,25,2019-07-15,8:20,R1,2019-07-15 08:20:21.200,797.918325539336
197,21.3,1.399999976158142,22.0,-79.7827551941887,40.45904158096258,272.5362115414143,-0.0029256776906549,-0.0152587732300162,-0.9962393045425416,0.0852404758334159,0.0041117479266109,0.0766012898259659,1.1995587450665544,-0.0722502171993255,-0.0324312821030616,0.0469549298286438,0.3155061452463269,0.0524412012565881,-12.79533220410347,10.0,250.0,25,2019-07-15,8:20,R1,2019-07-15 08:20:21.300,746.6833594070486
197,21.5,1.399999976158142,22.0,-79.78275530359656,40.45904157698297,272.8110438646078,-0.0081372400745749,-0.0111382314935326,-0.99625426530838,0.0853655040264129,0.0255932450851723,0.0720046665287638,1.7161819090882122,0.0259405095130205,-0.072923332452774,0.0367798916995525,0.3053973143734038,0.1560763652622699,-12.468078746795657,10.0,250.0,25,2019-07-15,8:20,R1,2019-07-15 08:20:21.500,813.4313375594938
197,21.61,1.5,21.0,-79.78275528811578,40.45904156201089,272.99643906068803,-0.0079620629549026,-0.0102184973657131,-0.996277391910553,0.0852266401052475,0.0323399641422134,0.0618921345882951,1.9859051517022248,0.108148954808712,-0.0178367048501968,0.0768980756402015,0.2919558629393577,0.2161898352205753,-12.4664964902401,10.0,250.0,25,2019-07-15,8:20,R1,2019-07-15 08:20:21.610,781.4237125334257
197,21.8,1.7000000476837158,20.0,-79.78275541661559,40.459041632866494,273.38779302549364,-0.0077239111997187,-0.0102741094306111,-0.9962930679321288,0.0850581526756286,0.0170228563294214,0.0708438543104046,2.378361608372833,-0.009911136701703,-0.0959449112415313,-0.0116887055337429,0.3557527498528361,0.1946869920194148,-11.948479961156846,10.0,250.0,25,2019-07-15,8:20,R1,2019-07-15 08:20:21.800,816.4468425430824
197,21.91,1.7000000476837158,21.0,-79.78275560478635,40.45904179473657,273.56312020730974,-0.0073150927200913,-0.0111866602674126,-0.9962802529335022,0.0851292759180069,0.016933990839282,0.0556924360967486,2.5109842882533284,-0.0030595555435866,-0.068215325474739,-0.0533129088580608,0.3143926526606083,0.2110686792992056,-11.869636105298994,10.0,250.0,25,2019-07-15,8:20,R1,2019-07-15 08:20:21.910,776.9480656609086
197,22.1,1.7999999523162842,22.0,-79.78275552380146,40.459041796465776,274.1065440387726,-0.0103704389184713,-0.0122111244127154,-0.996170938014984,0.0859477072954177,0.0022878851119869,0.0854816140068316,2.8873754559052447,-0.0865520238876342,-0.110411487519741,-0.0439609885215759,0.3095435932651162,0.0978189203236252,-11.447661262750628,10.0,250.0,25,2019-07-15,8:20,R1,2019-07-15 08:20:22.100,605.3554498178783
197,22.2,1.7999999523162842,18.0,-79.78275576280205,40.45904219428993,274.52849962425233,-0.0143277142196893,-0.0113088246434927,-0.9960811138153076,0.0865414068102836,0.0119974064664136,0.0503542518891989,2.9106609225872586,-0.0846325680613517,-0.104531206190586,-0.0124604636803269,0.2873697455227375,0.2047186031006276,-10.82036612033844,10.0,250.0,25,2019-07-15,8:20,R1,2019-07-15 08:20:22.200,665.3271931197631
197,22.4,2.0,23.0,-79.7827558804493,40.45904270774344,274.667414686203,-0.0170674473047256,-0.0106585128232836,-0.9960857629776,0.0860716104507446,0.0054505090355216,0.0120975932243603,2.8612084766963526,-0.0262445677071809,0.0160731747746467,0.0177983250468969,0.3590540878102184,0.1608160086348652,-10.401109063625336,10.0,250.0,25,2019-07-15,8:20,R1,2019-07-15 08:20:22.400,659.6366507641723
197,22.5,2.0,21.0,-79.78275577748812,40.45904276707167,274.9554767818451,-0.0199623014777898,-0.0094995377585291,-0.9961485862731934,0.0848488584160804,-0.0067407016062198,0.0144360013872422,2.898996086230324,-0.0835741385817527,-0.1497239023447036,-0.0201169792562723,0.2903074232116341,0.0770384001173079,-10.217288975715638,10.0,250.0,25,2019-07-15,8:20,R1,2019-07-15 08:20:22.500,655.5429740056642
197,22.7,2.0999999046325684,18.0,-79.78275592438973,40.459043002725146,275.4940452785492,-0.019308403134346,-0.0096713853999972,-0.9963802099227904,0.082220584154129,-0.0081457225967822,-0.0101154647721448,2.9055132800656525,0.1578338891267776,0.0372361205518245,0.0562243238091468,0.2554785197228193,0.1388130457699299,-9.924355165958405,10.0,250.0,25,2019-07-15,8:20,R1,2019-07-15 08:20:22.700,627.3447842517273
197,22.81,2.200000047683716,18.0,-79.78275574953744,40.459043071571095,275.7842989177704,-0.016165992245078,-0.0094305882230401,-0.9964518547058104,0.0820575729012489,-0.0523697736867697,-0.0006667230343734,2.9068445804074328,0.0888019055128097,-0.0177920367568731,-0.0520111210644245,0.2106554456055164,0.0687436861731112,-9.839358869791033,10.0,250.0,25,2019-07-15,8:20,R1,2019-07-15 08:20:22.810,606.6406265176265
197,23.0,2.400000095367432,18.0,-79.7827557504232,40.45904323976001,276.3218994350433,-0.0033718522172421,-0.0083903446793556,-0.9964116215705872,0.0841559991240501,-0.1109594482999266,0.0023686698057026,2.8375285915001025,0.1151596307754516,-0.0129750575870275,-0.0458389073610305,0.2183411537669599,0.1000295881088823,-9.667571182250976,10.0,250.0,25,2019-07-15,8:20,R1,2019-07-15 08:20:23.000,658.0253357411311
197,23.11,2.400000095367432,20.0,-79.78275563237682,40.459043743684255,276.80257584762575,0.0025225947611033,-0.0139916753396391,-0.9961294531822203,0.086741454899311,-0.1672640950660394,-0.0121061241516418,2.7425731194211047,-0.1182209923863411,-0.0212310086935758,-0.0806506276130676,0.3177465790137648,-0.1112232236657291,-9.637138763666153,10.0,250.0,25,2019-07-15,8:20,R1,2019-07-15 08:20:23.110,609.8578316251588
197,23.21,2.299999952316284,23.0,-79.7827554699614,40.45904383415125,277.0757858963013,0.0005369102000258,-0.0170928295701742,-0.9960124492645264,0.087560087442398,-0.1477537962231459,-0.0001220226299659,2.720731640809521,-0.0079474365338683,0.0879840478301048,0.0477560050785541,0.3086140687018633,-0.1502628807350993,-9.65344430923462,10.0,250.0,25,2019-07-15,8:20,R1,2019-07-15 08:20:23.210,617.9175417514052
197,23.4,2.299999952316284,21.0,-79.78275517167447,40.45904366983618,277.42937495422365,-0.001707641640678,-0.0192181728780269,-0.9959469437599182,0.0878493189811706,-0.1537083597165899,0.0182738413456306,2.719059976189645,-0.1142235174775123,0.0037638917565345,-0.0646175146102905,0.248330262042582,0.2509264257922769,-9.641090312004089,10.0,250.0,25,2019-07-15,8:20,R1,2019-07-15 08:20:23.400,610.489212639517
197,23.6,2.299999952316284,18.0,-79.78275487971587,40.459043863635394,277.9689672203064,-0.0001484063832322,-0.0206808634102344,-0.9959433674812316,0.0875733345746994,-0.115338194654142,0.0142579492754903,2.6783569061760466,0.0288819670677185,-0.07013700902462,-0.0535188689827919,0.2625467070937157,0.1582954018749297,-9.58337829351425,10.0,250.0,25,2019-07-15,8:20,R1,2019-07-15 08:20:23.600,570.0724319931579
197,23.71,2.400000095367432,14.0,-79.78275500422156,40.459043359956986,278.43214966964723,0.0034504684153944,-0.0204242523759603,-0.996010959148407,0.0867936909198761,-0.0881702699463052,0.0401692990668929,2.7210662144651305,0.1229533478617668,0.0357871204614639,0.0968704894185066,0.3014744356647134,-0.081343896863982,-9.492034844756128,10.0,250.0,25,2019-07-15,8:20,R1,2019-07-15 08:20:23.710,614.6914978482854
197,23.8,2.400000095367432,12.0,-79.78275471100986,40.45904310906759,279.0993507118225,0.006459979340434,-0.0185428522527217,-0.9961546659469604,0.0853832438588142,-0.0988245325189431,0.0345652659872262,2.688541524292521,0.0135053414851427,-0.011394876986742,0.0256553906947374,0.2496867429837584,-0.0169921091850847,-9.492785042524336,10.0,250.0,25,2019-07-15,8:20,R1,2019-07-15 08:20:23.800,634.467046407808
197,24.01,2.400000095367432,11.0,-79.78275458678665,40.45904327964299,279.63288190078737,0.0037639369256794,-0.0165212843567133,-0.9962263703346252,0.0851239636540412,-0.0889633472580697,0.00040161682846,2.6522854118053165,-0.1098494306206703,-0.0310878548771142,-0.0079715065658092,0.2828795589879155,0.0662886870000511,-9.579900954365732,10.0,250.0,25,2019-07-15,8:20,R1,2019-07-15 08:20:24.010,652.9409841924353
197,24.2,2.799999952316284,4.0,-79.78275426641112,40.45904301976111,280.0259664268494,0.0013852779520675,-0.0166638903319835,-0.9962041974067688,0.0854259207844734,-0.057536363608258,-0.0023457548392735,2.6965336796717168,0.042860273271799,0.0912364274263382,0.11534383893013,0.2629516815952957,-0.0607999193714931,-9.746394572854044,10.0,250.0,25,2019-07-15,8:20,R1,2019-07-15 08:20:24.200,606.4167771827231
197,24.3,2.799999952316284,1.0,-79.78275422638808,40.45904311001177,280.2942927093506,0.0004031175922136,-0.0178887192159891,-0.9961503744125366,0.085816316306591,-0.0478264046213564,-0.0073901777722025,2.6709877589412776,-0.0201347414404153,0.007619169075042,-0.0628332868218422,0.2227647003158927,0.1546559669449925,-9.570386949777603,10.0,250.0,25,2019-07-15,8:20,R1,2019-07-15 08:20:24.300,592.929772906755
197,24.5,2.700000047683716,358.0,-79.78275380416274,40.45904296926085,280.952641746521,0.0013448410900309,-0.0225003696978092,-0.996013879776001,0.0863037481904029,-0.0419480685856275,0.004219764889883,2.68169865356638,0.1185513511300087,0.0843410640954971,0.029194651171565,0.2937444713898003,0.1078285038471222,-9.653710942268372,10.0,250.0,25,2019-07-15,8:20,R1,2019-07-15 08:20:24.500,593.861517793266
197,24.6,2.799999952316284,355.0,-79.78275376171234,40.4590430720939,281.2203648300171,0.0036319268401712,-0.0225975736975669,-0.9960504174232484,0.0857887417078018,-0.048340502056962,0.0078774174556542,2.6770217323079875,0.0179975777864456,-0.0019575839396566,0.0370193570852279,0.2871775548532605,-0.1110571901500225,-9.74674657523632,10.0,250.0,25,2019-07-15,8:20,R1,2019-07-15 08:20:24.600,605.395750720636
197,24.7,2.900000095367432,348.0,-79.78275368002487,40.45904284415619,281.91718508911134,0.0056997644715011,-0.016600027680397,-0.9961958527565002,0.085357129573822,-0.0574770884798271,-0.0004766653937141,2.7448779096118963,0.0102880550548434,-0.0507102645933628,0.0191974025219678,0.2496308107115328,0.0128438522899523,-9.8228054022789,10.0,250.0,25,2019-07-15,8:20,R1,2019-07-15 08:20:24.700,596.0054538613549
197,24.9,2.900000095367432,348.0,-79.78275343336476,40.45904253412188,282.6119301528932,0.0054129338823258,-0.016475360840559,-0.9961131811141968,0.0863594189286232,-0.0576066110418574,-0.0069986503883761,2.790356730635806,-0.118767961859703,0.0151293827220797,-0.0325174257159233,0.301324162222445,-0.1392518336232751,-9.744212391972544,10.0,250.0,25,2019-07-15,8:20,R1,2019-07-15 08:20:24.900,606.1499636819426
197,25.1,2.900000095367432,345.0,-79.78275343335055,40.45904262039669,282.8904326171875,0.0045000598765909,-0.0184537526220083,-0.9960229396820068,0.0870496407151222,-0.0322678189510034,-0.0043305675478597,2.7844028532243903,0.0081224655732512,0.0244706775993108,-0.0384159013628959,0.2479824075289071,0.0474840871430933,-9.713144381046297,10.0,250.0,25,2019-07-15,8:20,R1,2019-07-15 08:20:25.100,620.6678751128383
197,25.2,3.0,344.0,-79.7827530758023,40.45904231847912,283.3133928985596,0.0046827583573758,-0.0186282806098461,-0.9959565997123718,0.0877587422728538,-0.0265426187378934,0.0397787079768715,2.8564592333721386,0.0794206634163856,0.0016858862945809,0.0008556451648473,0.2861861959844828,0.0102438672934658,-9.748562135696412,10.0,250.0,25,2019-07-15,8:20,R1,2019-07-15 08:20:25.200,603.0871915511016
197,25.3,3.0,339.0,-79.78275306732286,40.45904207511227,284.0084374160767,0.0040104552172124,-0.0180247128009796,-0.9958719611167908,0.0888720378279686,-0.0136785514231169,0.0449605386370037,2.942078621402298,-0.1019357442855835,-0.0261389594525098,-0.0179768968373537,0.2044635365903376,0.1109341976232826,-9.78688127875328,10.0,250.0,25,2019-07-15,8:20,R1,2019-07-15 08:20:25.300,555.9036201027664
197,25.5,3.0,336.0,-79.7827531443027,40.45904219037152,284.5953877182007,0.0030108825303614,-0.0187330432236194,-0.9959122538566588,0.0883110165596008,0.0206817818213856,0.0292617561594192,2.9322583183669506,0.0698011070489883,-0.0039777718484401,0.0524361804127693,0.2718140139989555,-0.0106789252627641,-9.764108127951625,10.0,250.0,25,2019-07-15,8:20,R1,2019-07-15 08:20:25.500,555.6255125574463
197,25.7,3.0999999046325684,336.0,-79.78275314187373,40.45904201105538,284.95722510528566,0.0038238237611949,-0.0186447706073522,-0.99590665102005,0.0883623734116554,0.0342184362745882,0.0457508137738484,2.9432796249270834,0.0470995046198368,0.0244145542383194,-0.0081661809235811,0.2853522368520498,-0.1307830827869475,-9.646965009570122,10.0,250.0,25,2019-07-15,8:20,R1,2019-07-15 08:20:25.700,584.3933587463107
197,25.8,2.900000095367432,333.0,-79.78275320167,40.459042067348186,285.25064589691164,0.0044686552137136,-0.0187048316001892,-0.995895504951477,0.0884435921907424,0.0226923338715968,0.0375968825011468,2.9258368240028325,-0.0620204918086528,-0.0139920962974429,-0.0525278747081756,0.3038460663333535,0.2465954297035933,-9.601874206066134,10.0,250.0,25,2019-07-15,8:20,R1,2019-07-15 08:20:25.800,574.590098418852
197,26.0,2.900000095367432,330.0,-79.78275338764854,40.45904197129103,285.8878033370972,0.0041020950302481,-0.0176183674484491,-0.9959151744842528,0.0884636417031288,0.0438000872845588,0.0330936469006365,2.923358429694926,-0.0214135032147169,-0.0272767022252082,-0.0692162960767746,0.2762761156260967,0.0958987403847277,-9.722399353981018,10.0,250.0,25,2019-07-15,8:20,R1,2019-07-15 08:20:26.000,580.843189808602
197,26.1,2.900000095367432,328.0,-79.78275347731636,40.45904203315871,286.18017794799806,0.0031828172504901,-0.0170271005481481,-0.9959469437599182,0.0882595553994178,0.0469582093386324,0.0240045796117908,2.9216160786952634,-0.0622102655470371,-0.0717459693551063,-0.0235422104597091,0.2686094109155237,-0.0791969545930624,-9.733238337635994,10.0,250.0,25,2019-07-15,8:20,R1,2019-07-15 08:20:26.100,639.7390796806285
197,26.3,2.900000095367432,326.0,-79.78275364293424,40.45904195010908,286.8198883743286,0.0008450369350612,-0.014368625357747,-0.99609637260437,0.0870918482542038,0.0614954537213573,0.0201792015746073,2.9680699087089266,0.0589358732104301,0.0394647382199764,0.1064456403255462,0.2633590863458812,-0.1552203511632979,-9.900009698867796,10.0,250.0,25,2019-07-15,8:20,R1,2019-07-15 08:20:26.300,602.2474320422955
197,26.4,2.799999952316284,325.0,-79.78275378496271,40.45904183032916,287.4499857635498,0.0017748662503436,-0.0145478462800383,-0.9960861802101136,0.0871647447347641,0.0643211451803232,0.0268612683530153,2.9821056578501364,0.0419717654585838,0.0637682750821113,0.049946155399084,0.2411455323547125,0.1429590779822319,-9.865099482536316,10.0,250.0,25,2019-07-15,8:20,R1,2019-07-15 08:20:26.400,585.9816589331168
197,26.5,2.799999952316284,323.0,-79.78275386004009,40.45904187512894,287.7477371902466,0.0015616671880707,-0.0152374086901545,-0.9960535168647766,0.0874239951372146,0.0382793205335162,0.0236949140902199,2.9772240593070083,-0.1269062608480453,-0.0107569871470332,-0.0320153422653675,0.2396697864867747,0.1890639074519276,-9.774748306274414,10.0,250.0,25,2019-07-15,8:20,R1,2019-07-15 08:20:26.500,605.9650189908572
197,26.7,2.700000047683716,322.0,-79.7827539124047,40.45904181500602,288.0686714859009,-0.0001564731792313,-0.0149803645908832,-0.9960521459579468,0.0874973908066749,0.0577565279756496,0.0307730254608562,2.957563435086783,0.0455757975578308,0.0311590209603309,0.0738608017563819,0.2517729747109115,-0.1669764157757163,-9.638935613036155,10.0,250.0,25,2019-07-15,8:20,R1,2019-07-15 08:20:26.700,608.5103046479636
197,26.9,2.700000047683716,320.0,-79.78275417794617,40.45904187522153,288.6832316131592,-0.0006196374888531,-0.0134190684184432,-0.9961029291152954,0.0871691778302192,0.0859158754489215,0.001985303818822,2.9577732749129453,0.1527146100997924,0.0665511339902877,0.1224315762519836,0.2415182375349104,-0.1656373668462038,-9.824092959165574,10.0,250.0,25,2019-07-15,8:20,R1,2019-07-15 08:20:26.900,611.5149549841008
197,27.01,2.5999999046325684,318.0,-79.78275434516956,40.459041988148506,289.2745268554688,0.0009681324008852,-0.010290065780282,-0.9961504340171814,0.0870492234826088,0.0566264095464871,-0.0039901942930279,2.9488422850616227,-0.0396489426493644,0.0130219208076596,0.0628676638007164,0.256856397818774,0.0780166484322398,-9.826638836860658,10.0,250.0,25,2019-07-15,8:20,R1,2019-07-15 08:20:27.010,596.2881373257842
197,27.2,2.5999999046325684,315.0,-79.78275457634763,40.45904194647622,289.5905573577881,-0.000417809060309,-0.0097372150048613,-0.9961311817169192,0.0873372629284858,0.0635805111620118,-0.0090057581341873,2.95875350144242,-0.0298416744917631,-0.0461298674345016,-0.0744589194655418,0.2276344259642065,0.1328010117262602,-9.830338954925535,10.0,250.0,25,2019-07-15,8:20,R1,2019-07-15 08:20:27.200,612.909199356287
197,27.3,2.5999999046325684,314.0,-79.78275466659314,40.45904199493111,289.8867762298584,-0.0024308471474796,-0.0093100694939494,-0.99607515335083,0.0879881381988525,0.0767642196620702,-0.0071930313845424,2.969197938790721,-0.0066574290394783,0.0382945388555526,0.0167291332036256,0.2444904686138033,-0.1449959646910429,-9.938182661533355,10.0,250.0,25,2019-07-15,8:20,R1,2019-07-15 08:20:27.300,602.5404304715667
197,27.5,2.700000047683716,319.0,-79.7827549181341,40.4590420673608,290.49439646911617,-0.0017555056838318,-0.0072213700041174,-0.9960024952888488,0.0890169143676757,0.0881705533101915,-0.0054174840687823,2.9771509669329266,0.0862857550382614,0.0295717790722847,0.0688268765807151,0.2929784130491316,-0.0447663013078272,-9.883428164720538,10.0,250.0,25,2019-07-15,8:20,R1,2019-07-15 08:20:27.500,597.6474379080538
197,27.6,2.700000047683716,319.0,-79.78275499827788,40.45904209786536,290.79235484313966,-0.0021170133259147,-0.005929552949965,-0.9959980249404908,0.0891535058617591,0.0684627565662163,0.0046826129154935,2.9794915476399844,-0.0375623069703578,-0.0990635380148887,-0.0086928922683,0.2169931695610285,0.014561969814822,-9.807620183229448,10.0,250.0,25,2019-07-15,8:20,R1,2019-07-15 08:20:27.600,537.0187734688261
197,27.71,2.700000047683716,322.0,-79.78275532936658,40.45904202095608,291.39032389831544,-0.0027779566589742,-0.0074433055706322,-0.9960237145423888,0.0887337774038314,0.0989900660976401,0.0156335944200608,2.864670762931692,0.1277438551187515,0.1361444294452667,0.1007971465587616,0.2599890253320337,-0.1397966388054192,-9.161194120645524,10.0,250.0,25,2019-07-15,8:20,R1,2019-07-15 08:20:27.710,478.1541820040439
197,27.9,2.799999952316284,323.0,-79.78275563688692,40.459041994099934,291.96032168579103,-0.0023799827322363,-0.01452939491719,-0.9959700107574464,0.0884705781936645,0.0831590366355656,0.0520793745831694,2.6437708509283846,-0.0638396069407463,0.0673277005553245,-0.0152895133942365,0.2439994852244854,0.0817553581204265,-8.83198944747448,10.0,250.0,25,2019-07-15,8:20,R1,2019-07-15 08:20:27.900,418.8304695094703
197,28.1,2.900000095367432,321.0,-79.78275571727453,40.45904198754385,292.21661784362794,-0.0027718546334654,-0.0168181024491786,-0.995945930480957,0.0883246287703514,0.0834909665813971,0.067134809699428,2.477278716134657,0.011095262132585,0.0323688760399818,-0.0097784288227558,0.3217065692692995,0.028104594068136,-8.24958279490471,10.0,250.0,25,2019-07-15,8:20,R1,2019-07-15 08:20:28.100,486.6271752624161
197,28.21,2.799999952316284,324.0,-79.78275592179158,40.45904195497703,292.4776137084961,-0.0037757945246994,-0.0182589329779148,-0.9959350228309632,0.0881243720650672,0.0714445304011239,0.0757842828959409,2.34536415103584,-0.0428500175476074,0.0285058412700891,-0.0005005636485293,0.266642462387681,0.0098153965780511,-8.2514942497015,10.0,250.0,25,2019-07-15,8:20,R1,2019-07-15 08:20:28.210,494.1266845551545
197,28.4,2.799999952316284,324.0,-79.7827561077668,40.45904188882753,292.9392645568848,-0.0050330865196883,-0.0198833793401718,-0.9959460496902466,0.0875832960009574,0.0721155694905252,0.0736404371294492,2.119365711393977,0.0447021089494228,0.0139036858454346,-0.02115498483181,0.3359779416024685,-0.0325939971674233,-8.568956544399263,10.0,250.0,25,2019-07-15,8:20,R1,2019-07-15 08:20:28.400,500.0751302243589
197,28.5,2.799999952316284,326.0,-79.78275618049102,40.45904190447783,293.3432467193604,-0.005593707319349,-0.0187926590442657,-0.9959933161735536,0.0872519165277481,0.0503150502860784,0.0545127979536925,1.9264061453334915,0.0258191172033548,-0.023336037993431,-0.004491725936532,0.2885820377804339,-0.0468105701263994,-8.74686977505684,10.0,250.0,25,2019-07-15,8:20,R1,2019-07-15 08:20:28.500,491.4325343119162
197,28.7,2.799999952316284,329.0,-79.78275623069922,40.45904182273173,293.5634215087892,-0.005299397278577,-0.0184172410517931,-0.9959946870803832,0.0873350426554679,0.0435299708979276,0.0488342043386477,1.8883695724397584,0.0796010345220565,0.0753520727157592,0.0123744988813996,0.2843720790557563,-0.1114466878026724,-9.054826251268388,10.0,250.0,25,2019-07-15,8:20,R1,2019-07-15 08:20:28.700,513.6949764427591
197,28.8,2.799999952316284,331.0,-79.78275623402286,40.45904183969604,293.7499468536377,-0.005099737085402,-0.0178633015602827,-0.9959709644317628,0.0877314507961273,0.0332521436358788,0.03831040655283,1.839750222755532,0.1445839554071426,0.0599964261054992,0.0684166103601455,0.2934439062327146,-0.1382834250759333,-9.229167417883874,10.0,250.0,25,2019-07-15,8:20,R1,2019-07-15 08:20:28.800,460.44570027854576
197,29.0,2.5999999046325684,331.0,-79.78275626747002,40.45904175927844,294.1444723815918,-0.0031464758794754,-0.0194869339466094,-0.9958478212356568,0.0888681933283805,-0.0081190662660071,0.0400915639744118,1.7442266845794585,-0.010121589526534,0.0218745041638612,-0.0610898770391941,0.2648013203591109,0.1555644780769944,-9.013830837607385,10.0,250.0,25,2019-07-15,8:20,R1,2019-07-15 08:20:29.000,504.9799845884591
197,29.1,2.5,330.0,-79.78275624142412,40.459041785156046,294.3151190490723,-0.0021950374357402,-0.0202403664588928,-0.9957882761955258,0.0893938839435577,-0.0214659467071118,0.0383311449981649,1.673378144310587,-0.0266242064535617,-0.0285611860454082,-0.0103818196803331,0.2558035518229008,0.113919731117785,-9.068046805858613,10.0,250.0,25,2019-07-15,8:20,R1,2019-07-15 08:20:29.100,505.0988430853759
197,29.2,2.299999952316284,330.0,-79.78275621513599,40.45904173797007,294.7026713104248,-0.0008827446145005,-0.0177200958132743,-0.9957695603370668,0.0901569873094558,-0.0378361997936022,0.0356675132408181,1.6360009100034292,-0.0756943449378013,-0.0290438532829284,-0.0291291400790214,0.2137671510502696,0.1084455860964954,-9.291578843593598,10.0,250.0,25,2019-07-15,8:20,R1,2019-07-15 08:20:29.200,523.15944863595
197,29.4,2.200000047683716,330.0,-79.78275615141109,40.45904160896203,294.9335062713623,-0.0001149401650764,-0.0167323257774114,-0.9957829713821412,0.0902019739151001,-0.0356661205909614,0.0427325433533951,1.6469049797536817,0.0415941290557384,0.0413457825779914,0.0721158906817436,0.2546818000450731,-0.1359506144374609,-9.22173911511898,10.0,250.0,25,2019-07-15,8:20,R1,2019-07-15 08:20:29.400,478.2056943766292
197,29.6,2.0999999046325684,331.0,-79.78275603942784,40.45904164915553,295.24930407714845,0.001626786077395,-0.0134480148553848,-0.9958513975143432,0.089980624616146,-0.0440962884680897,0.0311417447166618,1.5073162812412428,0.0279241409152746,-0.0116930808871984,-0.0089675420895218,0.2853024624288082,-0.0981098193023353,-9.11803114414215,10.0,250.0,25,2019-07-15,8:20,R1,2019-07-15 08:20:29.600,282.4960331809015
197,29.71,2.0,332.0,-79.7827558857713,40.45904149973204,295.47437693786617,0.0018158524762839,-0.0127363987267017,-0.9958749413490297,0.0898202583193779,-0.0521384416364721,0.0449364223003963,1.4853369437693438,0.0304688103497028,0.006629092618823,0.0183795150369405,0.2065097514353693,-0.1553240478783846,-8.753067238926889,10.0,250.0,25,2019-07-15,8:20,R1,2019-07-15 08:20:29.710,356.72020769357187
197,29.9,1.8999999761581416,332.0,-79.78275579156399,40.45904151743493,295.729084274292,0.0030055728275328,-0.0137086920440197,-0.9921740889549256,0.1240712255239486,-0.0910916508220817,0.0327463850614306,0.9590848166621028,0.0511985123157501,-0.0123192211613059,-0.7456817626953125,0.1984140986390412,-0.2743454381078481,-7.267983806133269,10.0,250.0,25,2019-07-15,8:20,R1,2019-07-15 08:20:29.900,426.89229347289074
197,30.0,1.7999999523162842,328.0,-79.78275567889678,40.4590415280439,295.81503512573244,0.0038628322072327,-0.0118514625355601,-0.9852477312088012,0.1706796139478683,-0.0962463211081987,0.0303849422504618,0.7692789250331403,0.0652009174227714,-0.0088135004043579,-0.989118993282318,0.1935800775513053,-0.2349451083317399,-7.8118309950828575,10.0,250.0,25,2019-07-15,8:20,R1,2019-07-15 08:20:30.000,460.07800074224366
197,30.2,1.600000023841858,329.0,-79.78275555444918,40.45904164974007,295.9103052825928,0.0051103369332849,-0.0088877845555543,-0.956939697265625,0.2901058495044708,-0.0886407403834887,0.0322744620805606,0.5484300686597152,0.0832328051328659,0.0133064743131399,-1.3593778610229492,0.1532616252824664,-0.0872420929279178,-8.783472175598147,10.0,250.0,25,2019-07-15,8:20,R1,2019-07-15 08:20:30.200,488.6073589830266
197,30.3,1.600000023841858,330.0,-79.78275545125891,40.45904166917056,295.9632208557129,0.0064705437980592,-0.0079666087403893,-0.9340455532073976,0.3570063710212707,-0.0830747574649758,0.0387231897103369,0.5123374506369422,0.0372843742370605,0.0274019911885261,-1.4947303533554075,0.2345006285794079,0.0755873952805996,-9.316694973707197,10.0,250.0,25,2019-07-15,8:20,R1,2019-07-15 08:20:30.300,498.3197490442035
197,30.5,1.5,314.0,-79.78275527676348,40.45904179132997,296.0056078643799,0.0080286376178264,-0.0070201507769525,-0.8702083230018616,0.492568701505661,-0.0574471772895384,0.0507996657711726,0.4582361403209581,-0.0606234893202781,-0.0689838230609893,-1.5589110851287842,0.0533547099307179,0.2248634670116008,-9.481903958916664,10.0,250.0,25,2019-07-15,8:20,R1,2019-07-15 08:20:30.500,476.309152419617
197,30.6,1.399999976158142,308.0,-79.78275501562295,40.45904184267778,296.0337336273193,0.0102777136489748,-0.006128913257271,-0.7829455137252808,0.6219751834869385,0.014625578565995,0.0520120471673393,0.4040267021357057,0.0524263978004455,0.0028515520971268,-1.5582647323608398,0.1161611241940409,0.1682502682507038,-9.543425438404084,10.0,250.0,25,2019-07-15,8:20,R1,2019-07-15 08:20:30.600,506.9366419440085
197,30.8,1.2999999523162842,317.0,-79.78275498603212,40.459041806447246,296.07337214660646,0.0121128764003515,-0.0048190956003963,-0.732385516166687,0.6807655096054077,0.0445969982511283,0.040478010816483,0.3891872297988701,-0.0038362604100257,0.0200853627175092,-1.52174174785614,0.1387070101685822,0.263840769007802,-9.63942853331566,10.0,250.0,25,2019-07-15,8:20,R1,2019-07-15 08:20:30.800,507.68491054777047
197,30.9,1.2000000476837158,322.0,-79.78275461746817,40.45904173556991,296.0844652862549,0.013655730523169,-0.0025913044810295,-0.6831142902374268,0.7301791906356812,0.092244482488242,0.0411347621800488,0.4051162491537004,0.0800937786698341,-0.0179889257997274,-1.2217814922332764,0.0924744099006056,0.0956328199803829,-9.71201469898224,10.0,250.0,25,2019-07-15,8:20,R1,2019-07-15 08:20:30.900,516.4813855665852
197,31.0,1.100000023841858,311.0,-79.78275456052923,40.45904148873579,296.16522624206544,0.0154017219319939,0.0010975169716402,-0.6082291603088379,0.7936113476753235,0.1735091782533311,0.0060826163301938,0.4088815511470559,0.0556380078196525,-0.0457711741328239,-0.7155053019523621,0.1980597573705017,0.3375369554758072,-9.805357895493508,10.0,250.0,25,2019-07-15,8:20,R1,2019-07-15 08:20:31.000,514.5151220525986
197,31.2,1.100000023841858,310.0,-79.7827538611453,40.45904109781449,296.25322749328615,0.0013909521512687,0.0019547364208847,-0.5723516941070557,0.8200048804283142,0.2393366827941439,0.0647281524667115,0.5292515366670689,-0.1859047561883926,-0.4665636122226715,-0.2596442699432373,0.3014950470998883,-0.0259344776370562,-9.960541244745253,10.0,250.0,25,2019-07-15,8:20,R1,2019-07-15 08:20:31.200,593.3151473165854
197,31.4,1.100000023841858,325.0,-79.78275392633974,40.45904086641543,296.1518957824707,-0.0246742628514766,0.0131510477513074,-0.5665491819381714,0.8235535025596619,0.2867825936578447,0.1109158291970348,0.5341520468796624,-0.1253902167081833,-0.6256000995635986,-0.1601800918579101,0.4613639529794455,0.3001859834231436,-10.447069348096848,10.0,250.0,25,2019-07-15,8:20,R1,2019-07-15 08:20:31.400,559.8153314598168
197,31.5,1.100000023841858,333.0,-79.7827536306783,40.45904065668115,296.20718981933595,-0.050069011747837,0.0306214075535535,-0.5656090974807739,0.8225823640823364,0.3078662420511657,0.1703539261984537,0.5820058369692245,-0.0844288319349289,-0.5999796390533447,-0.0118608381599187,0.1085160359088331,0.2732788694277406,-10.288996889591218,10.0,250.0,25,2019-07-15,8:20,R1,2019-07-15 08:20:31.500,579.6725653018366
197,31.7,1.100000023841858,331.0,-79.78275318134122,40.459040589077695,296.1703379364014,-0.0813316479325294,0.0563964396715164,-0.5722426176071167,0.8140903115272522,0.3120154768524019,0.3985659269715401,0.6754636965290021,-0.0555841065943241,-0.3046703338623047,0.0304045509546995,-0.0944723029900342,0.185693645440042,-10.354596801996232,10.0,250.0,25,2019-07-15,8:20,R1,2019-07-15 08:20:31.700,557.2672805104339
197,31.81,1.2000000476837158,334.0,-79.78275238046413,40.45904050763704,296.2318804473877,-0.0882983282208442,0.0607309639453888,-0.577323317527771,0.8094522356987,0.3137797521997383,0.5784918104113768,0.7591485867837771,-0.0799838006496429,-0.1446156352758407,0.0882037878036499,-0.103050076989457,0.1830596392415464,-10.301252653598787,10.0,250.0,25,2019-07-15,8:20,R1,2019-07-15 08:20:31.810,583.7237093393924
197,32.0,1.2999999523162842,349.0,-79.78275050442214,40.45904069092887,296.2466318817139,-0.0965388566255569,0.0616865828633308,-0.5870826840400696,0.8013795018196106,0.2978297566939134,0.984770936176932,0.8801652942943182,0.0354843512177467,-0.0499079190194606,0.1346547603607177,-0.0360552267800085,0.1393845562823117,-10.311229172945025,10.0,250.0,25,2019-07-15,8:20,R1,2019-07-15 08:20:32.000,555.6762841362979
197,32.1,1.2999999523162842,355.0,-79.78274773268383,40.45904125843389,296.2663386077881,-0.1016585081815719,0.0595721788704395,-0.5925620198249817,0.7968607544898987,0.2269294786248433,1.4142468243497066,0.9583006270613126,-0.1618453413248062,-0.0525393970310688,-0.0299921240657568,-0.0024923299904912,0.2235586791113019,-10.23749812245369,10.0,250.0,25,2019-07-15,8:20,R1,2019-07-15 08:20:32.100,540.6603396643621
197,32.3,1.600000023841858,4.0,-79.78274573168977,40.45904152688797,296.3269083709717,-0.1043791249394416,0.059188425540924,-0.5934034585952759,0.7959108948707581,0.2159517958714413,1.6389364820375394,1.005062689555251,-0.0520216450095176,-0.0954356342554092,0.006844765972346,-0.0774378014914691,0.0429723938181996,-10.019745472669602,10.0,250.0,25,2019-07-15,8:20,R1,2019-07-15 08:20:32.300,545.169682565589
197,32.41,1.7000000476837158,10.0,-79.78274438617234,40.45904222067049,296.2561228485108,-0.1072283163666725,0.0599990598857402,-0.5931328535079956,0.795673131942749,0.1701125286611503,1.8219171210139773,0.9896619402526686,0.0121965371072292,-0.0126242078840732,0.0568625666201114,0.0016856380691751,-0.0775679203122854,-9.967760217189788,10.0,250.0,25,2019-07-15,8:20,R1,2019-07-15 08:20:32.410,550.2219976622328
197,32.6,2.0999999046325684,19.0,-79.7827392443874,40.45904316585234,296.3587687225342,-0.1167054995894432,0.0650803968310356,-0.5904911160469055,0.7959048748016357,0.1219860205411233,2.281514656721296,1.095996349697918,-0.109822392463684,-0.1822169572114944,-0.0551009029150009,-0.1159184921532869,0.3019003687798977,-9.912896962165831,10.0,250.0,25,2019-07-15,8:20,R1,2019-07-15 08:20:32.600,574.3972986075278
197,32.7,2.200000047683716,23.0,-79.78273451051395,40.45904511552414,296.279735824585,-0.1289612650871276,0.0732465907931327,-0.5853661298751831,0.7970888018608093,0.0530996152124003,2.6923248946184253,1.2089736656277752,-0.0331898257136344,-0.1387602388858795,-0.0564686544239521,-0.2105830132216215,0.2557981796935201,-10.004484239816666,10.0,250.0,25,2019-07-15,8:20,R1,2019-07-15 08:20:32.700,563.530639506178
197,32.9,2.5999999046325684,28.0,-79.78273217415422,40.45904649536777,296.1864626617432,-0.1344932615756988,0.0773659199476242,-0.5821446180343628,0.7981439232826233,-0.0146757789951061,2.8909662568641434,1.2651088613457708,-0.0944535508751869,-0.1909189373254776,-0.0670326426625251,-0.3533736639842391,0.21062644707039,-10.094511480331422,10.0,250.0,25,2019-07-15,8:20,R1,2019-07-15 08:20:32.900,523.3849812394147
197,33.0,2.799999952316284,28.0,-79.7827285123047,40.459047418237226,296.2222559661865,-0.1417997479438781,0.08173368871212,-0.5791782140731812,0.7986019849777222,-0.001562182343647,3.1450043914457835,1.3678441284278071,-0.0130506521090865,-0.1944984793663025,0.0388642214238643,-0.388988725617528,-0.016501792743802,-10.0088345682621,10.0,250.0,25,2019-07-15,8:20,R1,2019-07-15 08:20:33.000,554.3447544828012
197,33.2,3.2000000476837163,34.0,-79.78272170043402,40.4590505192696,296.1384890289307,-0.150032103061676,0.0887833312153816,-0.5741219520568848,0.7999950051307678,-0.0801853490000748,3.5937384919514703,1.5435073363601783,0.068188302218914,-0.0251152664422988,-0.0208707544952631,-0.4383374715596437,-0.0962847662530839,-9.984368648529053,10.0,250.0,25,2019-07-15,8:20,R1,2019-07-15 08:20:33.200,555.2024044356658
197,33.3,3.400000095367432,37.0,-79.78271722170034,40.45905177522328,296.1626494140625,-0.1492650955915451,0.0894507840275764,-0.5733680725097656,0.8006044626235962,-0.0768685488842505,3.8558914593379248,1.65950086709319,0.0772130340337753,0.0343414768576622,-0.1099537685513496,-0.5718655845522881,0.3865193368121982,-10.043086388111115,10.0,250.0,25,2019-07-15,8:20,R1,2019-07-15 08:20:33.300,563.669156965334
197,33.41,3.900000095367432,36.0,-79.78270837829095,40.4590555961117,296.0958178253174,-0.1452743411064148,0.0842101499438285,-0.5719208121299744,0.8029388189315796,-0.1797011333946558,4.353943039478603,1.7677970112304444,-0.1695204079151153,-0.0225208383053541,-0.0161955412477254,-0.6725810967385769,0.2500904201343655,-10.091557466983796,10.0,250.0,25,2019-07-15,8:20,R1,2019-07-15 08:20:33.410,603.9957553877503
197,33.61,4.199999809265137,39.0,-79.78270307754893,40.4590571817712,296.11533381652833,-0.1441811770200729,0.0821266621351242,-0.5715659856796265,0.803604006767273,-0.1825503378133069,4.615931103535297,1.8180871948766777,-0.1676727533340454,0.0433230139315128,-0.1689057946205139,-0.6723802448809147,0.4964935860782862,-10.00304699420929,10.0,250.0,25,2019-07-15,8:20,R1,2019-07-15 08:20:33.610,542.5215161519883
197,33.71,4.699999809265137,41.0,-79.78269257421589,40.45906170034284,296.0594847412109,-0.1422897428274154,0.0815270319581031,-0.5689144134521484,0.8058806061744691,-0.2515398758115814,5.0594096261733865,1.8804643476841216,-0.0480313561856746,-0.0039358921349048,0.0792645066976547,-0.894335946366191,0.0937668090127408,-9.759646702408787,10.0,250.0,25,2019-07-15,8:20,R1,2019-07-15 08:20:33.710,535.2473102381482
197,33.9,5.0,42.0,-79.78268692787648,40.45906445260015,296.00362994384767,-0.141368955373764,0.0816394686698913,-0.5669645667076111,0.8074039220809937,-0.3357295080963216,5.263619861750539,1.9371658702534,-0.106034405529499,-0.0479783974587917,0.0075152139179408,-0.9000860982388258,0.4418395882844925,-9.927512662410736,10.0,250.0,25,2019-07-15,8:20,R1,2019-07-15 08:20:33.900,495.04714802529264
197,34.1,5.5,44.0,-79.78267425944199,40.4590685737741,296.0250570983887,-0.1385653913021087,0.0842226222157478,-0.5667672753334045,0.8077630400657654,-0.3026156881303852,5.701968578877945,2.003005572760782,0.1107269525527954,0.0396783351898193,-0.1285725831985473,-0.8562833632528782,0.3380580520257354,-9.660377352833748,10.0,250.0,25,2019-07-15,8:20,R1,2019-07-15 08:20:34.100,527.417776225997
197,34.2,5.699999809265138,43.0,-79.78266774045305,40.459071763452734,295.98242404174806,-0.1387814283370971,0.0840457305312156,-0.5652456283569336,0.8088099360466003,-0.3972579130434573,5.892411102053063,2.0456909262629908,0.0049571902491152,-0.0268948692828416,0.0577642098069191,-1.0651469296216964,0.0598698420636355,-9.64268952548504,10.0,250.0,25,2019-07-15,8:20,R1,2019-07-15 08:20:34.200,522.6805131135552
197,34.4,6.300000190734862,45.0,-79.78265398278351,40.45907743769789,295.9520762176514,-0.1378606557846069,0.0849212855100631,-0.565148115158081,0.8089441657066345,-0.4653859332622669,6.286093303764473,2.131656083019375,0.105229876935482,0.1288430243730545,0.0125011876225471,-1.032412681505084,0.315822552703321,-9.605332834124566,10.0,250.0,25,2019-07-15,8:20,R1,2019-07-15 08:20:34.400,489.39796195236346
197,34.5,6.5,45.0,-79.78263926758649,40.459082491455725,295.9448588104248,-0.1386041790246963,0.085885114967823,-0.5661064386367798,0.8080447316169739,-0.4855217832293983,6.672120145932483,2.173269939647617,-0.0209371261298656,-0.0734936520457267,-0.1301562786102295,-1.1374215848743916,0.1891100090928376,-9.558834605813027,10.0,250.0,25,2019-07-15,8:20,R1,2019-07-15 08:20:34.500,466.26421029554695
197,34.7,7.0,47.0,-79.78263161791295,40.459085922944304,295.9015314788818,-0.140955775976181,0.0868395939469337,-0.5654044151306152,0.808027446269989,-0.5414524469892888,6.855987311383308,2.2081212346574937,0.0490749888122081,-0.0526014193892478,-0.0513098202645778,-1.0442355322837829,0.1247645437158644,-9.357262955904009,10.0,250.0,25,2019-07-15,8:20,R1,2019-07-15 08:20:34.700,542.0483165930491
197,34.8,7.300000190734862,48.0,-79.78262377471458,40.4590886481313,295.8869555206299,-0.1435284167528152,0.0884449407458305,-0.5655604600906372,0.8072909116744995,-0.5502796860818158,7.033438493033607,2.2583521969697613,-0.0473401732742786,-0.048012439161539,-0.0709876492619514,-1.208033803626895,0.4059805150330067,-9.464680400490762,10.0,250.0,25,2019-07-15,8:20,R1,2019-07-15 08:20:34.800,511.3308813677395
197,35.0,7.699999809265138,49.0,-79.78260736023847,40.459094833934095,295.8219473571777,-0.1455981731414795,0.0891467183828353,-0.5653291344642639,0.8070050477981567,-0.594124846363479,7.381977543232367,2.4239295533971736,-0.0279845297336578,-0.049271959811449,0.3222695291042328,-1.513330015987158,-0.0457058940455317,-9.681949485540391,10.0,250.0,25,2019-07-15,8:20,R1,2019-07-15 08:20:35.000,536.760320773159
197,35.11,7.900000095367432,49.0,-79.78259019847896,40.45910142978514,295.76094081115724,-0.1470672637224197,0.0864915251731872,-0.5649392008781433,0.8073006272315979,-0.6686309950227518,7.731941851485572,2.5614079191419514,-0.0256036091595888,0.0376678965985775,0.0158464182168245,-1.2937587359547615,-0.044647621102631,-9.99756932258606,10.0,250.0,25,2019-07-15,8:20,R1,2019-07-15 08:20:35.110,461.6409632313007
197,35.3,8.199999809265138,49.0,-79.78258135891768,40.45910454914064,295.7397444458008,-0.1480965912342071,0.0872710794210434,-0.5648905038833618,0.807062566280365,-0.6611496989532001,7.905899636473932,2.604642528838406,-0.0037321329582482,-0.111465536057949,0.0096842776983976,-1.7491176715493204,0.0947452857345342,-9.717872439622882,10.0,250.0,25,2019-07-15,8:20,R1,2019-07-15 08:20:35.300,552.6681886096485
197,35.4,8.399999618530272,50.0,-79.78257234107787,40.45910826571775,295.6957228393555,-0.148154154419899,0.0881777554750442,-0.5643329620361328,0.8073434233665466,-0.7224932260821302,8.061899709586308,2.725139782106262,-0.0509060584008693,-0.0749571621417999,0.126841053366661,-1.6645284877717497,0.0376094007119536,-10.075311563014983,10.0,250.0,25,2019-07-15,8:20,R1,2019-07-15 08:20:35.400,552.1726689315548
197,35.61,8.800000190734863,50.0,-79.78255370402306,40.45911490951728,295.6647112579346,-0.14813132584095,0.0891634672880172,-0.5646111965179443,0.8070447444915771,-0.7421301766492505,8.389625685266516,2.880993502862447,-0.1375072002410888,0.0705128759145736,-0.0633196830749511,-1.5074759298563003,0.1059988278429955,-9.978250122070312,10.0,250.0,25,2019-07-15,8:20,R1,2019-07-15 08:20:35.610,491.89941552918754
197,35.7,9.0,50.0,-79.78254405033516,40.459118921437344,295.6050837249756,-0.1514167636632919,0.0889883860945701,-0.5633304715156555,0.8073493242263794,-0.8004382020991244,8.5611202883753,2.9132622873173912,0.0383540503680706,-0.183513805270195,0.0738158747553825,-1.7687784956395631,-0.0435984478890895,-9.601929169893266,10.0,250.0,25,2019-07-15,8:20,R1,2019-07-15 08:20:35.700,515.3113271314942
197,35.9,9.300000190734863,50.0,-79.78252429618365,40.45912653161354,295.5243532867432,-0.1571748554706573,0.0960550978779792,-0.5615432262420654,0.8066837787628174,-0.830645195064576,8.860136878516697,3.139836546113993,-0.0410079136490821,-0.0110222604125738,-0.0955402553081512,-1.8860002590715883,0.2924629444442689,-9.774475241303444,10.0,250.0,25,2019-07-15,8:20,R1,2019-07-15 08:20:35.900,657.1246648406741
197,36.01,9.5,49.0,-79.78251415967306,40.45913021935974,295.50413539123537,-0.1584419012069702,0.0971905067563057,-0.560020387172699,0.8073582649230957,-0.8300121445776373,8.994968071249877,3.3057938605292483,-0.0492671504616737,-0.0866334438323974,0.0091676730662584,-2.0226252767443658,-0.055081831254065,-9.866281789541246,10.0,250.0,25,2019-07-15,8:20,R1,2019-07-15 08:20:36.010,653.6761863612811
197,36.2,9.899999618530272,50.0,-79.78249303445445,40.45913832916016,295.4219839782715,-0.1592183709144592,0.0983617976307869,-0.5582929253578186,0.8082596063613892,-0.8137448994293832,9.318140335532352,3.5868571505955407,0.1486791968345642,-0.035216923803091,-0.0719706043601036,-1.881498926281929,0.3111902422830462,-10.457603691816333,10.0,250.0,25,2019-07-15,8:20,R1,2019-07-15 08:20:36.200,594.6989717348333
197,36.31,10.100000381469728,50.0,-79.78248230371956,40.45914225209688,295.4167483062744,-0.1516848653554916,0.0974044799804687,-0.5590445399284363,0.8093042373657227,-0.8038476974550715,9.43401450925424,3.7084091387828666,0.1621052473783493,0.2270860821008682,-0.0037865389604121,-2.0882762061059474,0.0639722394291311,-10.169767484664918,10.0,250.0,25,2019-07-15,8:20,R1,2019-07-15 08:20:36.310,595.5696122744557
197,36.5,10.399999618530272,49.0,-79.78246034163975,40.45915077106096,295.348188659668,-0.1148423478007316,0.0822760462760925,-0.5633447170257568,0.8140544891357422,-0.8880554982538665,9.77575275931786,3.4175579461305645,0.0307590253651142,0.4278483092784881,-0.0540882684290409,-2.2675588546693333,0.0081972481682896,-10.313327153921128,10.0,250.0,25,2019-07-15,8:20,R1,2019-07-15 08:20:36.500,543.7429741530068
197,36.61,10.600000381469728,53.0,-79.78244924996281,40.45915482780335,295.36040522766115,-0.0994418710470199,0.0719693005084991,-0.564875602722168,0.8159947395324707,-0.9014525068640796,9.96182694328832,3.067351805972013,-0.0262874271720647,0.3355574607849121,-0.0111647518351674,-1.9051952062547208,-0.0364997636340558,-10.487019864320756,10.0,250.0,25,2019-07-15,8:20,R1,2019-07-15 08:20:36.610,364.7121060271021
197,36.7,10.899999618530272,53.0,-79.78242665219231,40.45916359181732,295.3124048919678,-0.0857235938310623,0.0613632015883922,-0.5658305883407593,0.8177542090415955,-0.9113802082536112,10.199303883173476,2.3403421853061857,0.0205786377191543,-0.0093210926279425,0.0759259536862373,-2.2099794217944138,0.0829994080681353,-9.037306239008904,10.0,250.0,25,2019-07-15,8:20,R1,2019-07-15 08:20:36.700,446.545783201065
197,36.9,11.0,54.0,-79.78240391497869,40.45917221255271,295.2566225738525,-0.080693632364273,0.056756105273962,-0.5656686425209045,0.8187100887298584,-0.9085789802934366,10.233940483470356,2.093760451667696,-0.0459873117506504,0.0394067987799644,0.213312953710556,-2.1665242306888106,0.0318686637701466,-9.239301812052728,10.0,250.0,25,2019-07-15,8:20,R1,2019-07-15 08:20:36.900,494.7127660108417
197,37.11,11.300000190734863,61.0,-79.78239278262241,40.45917629441586,295.2526591033936,-0.0777788013219833,0.0528423003852367,-0.5659697651863098,0.8190460801124573,-0.8964672463185913,10.225765251130149,1.994250901257932,-0.0593260265886783,0.0633465349674224,0.0948677361011505,-2.2562925857305527,-0.1941675399988889,-9.426440779566766,10.0,250.0,25,2019-07-15,8:20,R1,2019-07-15 08:20:37.110,459.944026846948
197,37.21,11.300000190734863,63.0,-79.78238096654277,40.45918108953713,295.18419863891603,-0.07547228038311,0.0487337484955787,-0.5661859512329102,0.8193671703338623,-0.9421687754651692,10.28634057704082,1.8697201594716355,-0.1039588823914528,0.0731871351599693,0.1767868846654892,-1.846823183298111,-0.0737284009717405,-9.593880477547646,10.0,250.0,25,2019-07-15,8:20,R1,2019-07-15 08:20:37.210,435.5336783067468
197,37.4,11.5,63.0,-79.78235815892172,40.45918995211899,295.1151392669678,-0.0707030370831489,0.0424223467707634,-0.5677825808525085,0.8190388083457947,-0.9868875029687912,10.281764073262009,1.6650277387905297,0.0333873033523559,0.0114348828792572,0.12748584151268,-2.0889036123454567,-0.1563702243939042,-9.416544367074966,10.0,250.0,25,2019-07-15,8:20,R1,2019-07-15 08:20:37.400,494.4392616554542
197,37.5,11.600000381469728,63.0,-79.78234710520319,40.45919408570089,295.1023142547608,-0.0704943165183067,0.0408331081271171,-0.5681260228157043,0.8188993334770203,-1.0099708365171882,10.24387513247292,1.582748524199607,-0.0559283271431922,0.0442642420530319,-0.0102622061967849,-1.99080619096756,0.0526548256259411,-9.564240941405297,10.0,250.0,25,2019-07-15,8:20,R1,2019-07-15 08:20:37.500,455.4299865475769
197,37.7,11.699999809265137,67.0,-79.78232417284562,40.4592025738072,295.0312712402344,-0.0662563890218734,0.0409955419600009,-0.5682587027549744,0.8191529512405396,-1.0058392081145588,10.206795394271834,1.5720834372069978,0.1176148876547813,0.1660740822553634,-0.0990231037139892,-2.004227158874273,0.1331824146397411,-9.838420976400377,10.0,250.0,25,2019-07-15,8:20,R1,2019-07-15 08:20:37.700,441.3278932251196
197,37.8,11.699999809265137,66.0,-79.78230178242958,40.45921122694625,294.9569761962892,-0.0472457259893417,0.0342775583267211,-0.5689249038696289,0.8203154206275941,-1.0435068817990758,10.121886840200483,1.3374516595316588,-0.0256277490407228,0.1522356569766998,0.1708518117666244,-2.2854627366364,-0.1387347661703825,-9.786873092651367,10.0,250.0,25,2019-07-15,8:20,R1,2019-07-15 08:20:37.800,459.46167605983646
197,37.9,11.699999809265137,67.0,-79.78229099459973,40.45921531143743,294.9502165527344,-0.0388283059000968,0.0278481803834438,-0.5690682530403137,0.8209007978439331,-1.0461630257750485,10.044768503135412,1.1202405542148408,-0.0314266607165336,0.2022506892681121,-0.2483363002538681,-2.150715844631195,0.2844581244885921,-9.825761754512786,10.0,250.0,25,2019-07-15,8:20,R1,2019-07-15 08:20:37.900,489.6868315283209
197,38.1,11.699999809265137,67.0,-79.78228032374827,40.4592193629839,294.9474299163818,-0.0299977399408817,0.0214400384575128,-0.5687094926834106,0.8217117190361023,-1.0410695671557917,9.953507484924533,0.9481859381102984,0.0420950874686241,0.1510854810476303,0.3647457361221313,-2.0989429892599585,-0.3117647677659989,-10.028249663114549,10.0,250.0,25,2019-07-15,8:20,R1,2019-07-15 08:20:38.100,405.8797034910895
197,38.3,11.600000381469728,74.0,-79.78225874655939,40.45922781998341,294.88024356079103,-0.0149740977212786,0.0130844097584486,-0.5673215985298157,0.8232561945915222,-1.0091768556007072,9.759841370846477,0.5530343222775376,-0.0400820821523666,0.091301828622818,0.0044357860460877,-1.9708756640553475,0.0209498427808284,-9.878284953832628,10.0,250.0,25,2019-07-15,8:20,R1,2019-07-15 08:20:38.300,428.6895006254744
197,38.4,11.600000381469728,77.0,-79.7822478659923,40.45923210339674,294.81083323669435,-0.0094720982015132,0.0102617684751749,-0.5667945146560669,0.8237408399581909,-0.9797250852062476,9.654795558612948,0.4002634252202554,-0.0204852595925331,0.1944821178913116,-0.0767321661114692,-1.6590359057486057,0.1333728328719735,-10.05363008737564,10.0,250.0,25,2019-07-15,8:20,R1,2019-07-15 08:20:38.400,411.651489986034
197,38.6,11.5,76.0,-79.78222772420642,40.45923984940546,294.81957080078126,-0.0047782105393707,0.0056298770941793,-0.5662468671798706,0.8242025971412659,-0.9641315435508148,9.358729647267475,0.2118312627868263,-0.074545219540596,-0.0887701660394668,-0.0089796120300889,-1.7935287362337111,-0.1019297413341701,-9.74005502164364,10.0,250.0,25,2019-07-15,8:20,R1,2019-07-15 08:20:38.600,463.7668568545887
197,38.7,11.399999618530272,76.0,-79.78220751896167,40.459247762164566,294.7511790008545,-0.0105130430310964,0.0050686676986515,-0.5644914507865906,0.8253564834594727,-0.9303379529656371,9.112633168922,0.1720738372215628,-0.0175534337759017,-0.0707308426499366,0.0148471109569072,-1.7473595599830152,-0.114824386741966,-9.77535290837288,10.0,250.0,25,2019-07-15,8:20,R1,2019-07-15 08:20:38.700,405.6828791957378
197,38.9,11.199999809265137,80.0,-79.78219734048994,40.45925170457096,294.6875784606934,-0.0163288079202175,0.0063741374760866,-0.5628848671913147,0.8263494968414307,-0.8880105612573215,9.030289254983442,0.1608691950723398,-0.096732772886753,-0.1245331838726997,0.0036088579799979,-1.8325878444314003,-0.1171966021321714,-9.351194715499878,10.0,250.0,25,2019-07-15,8:20,R1,2019-07-15 08:20:38.900,443.2213973665421
197,39.01,11.100000381469728,79.0,-79.7821878659576,40.45925539090867,294.6806490631104,-0.0219421274960041,0.007014506496489,-0.5621469616889954,0.8267164826393127,-0.8826119478149609,8.903142747277636,0.2225345576914288,-0.0465527810156345,-0.1098419427871704,-0.0868536606431007,-1.6843008475005627,0.1216520160064101,-9.3958475625515,10.0,250.0,25,2019-07-15,8:20,R1,2019-07-15 08:20:39.010,427.8538008632604
197,39.1,10.899999618530272,78.0,-79.78216882694406,40.45926272866409,294.5938933105469,-0.0275297965854406,0.007666160352528,-0.5607784390449524,0.8274726271629333,-0.8309092743336788,8.72199611362893,0.294443002411197,0.0390194356441497,0.0151483472436666,-0.0637108013033866,-1.381681417375803,0.1085045790206641,-9.394859967827797,10.0,250.0,25,2019-07-15,8:20,R1,2019-07-15 08:20:39.100,407.65610273591307
197,39.31,10.800000190734863,78.0,-79.78215027396888,40.459269970110334,294.51021411132814,-0.0356911905109882,0.0141445063054561,-0.5593796968460083,0.8280220627784729,-0.8087138157124535,8.551721582911071,0.2971693520396793,0.1293388009071349,-0.0543511137366294,-0.0845639184117317,-1.662390891909599,-0.0018476287834346,-9.258789412379263,10.0,250.0,25,2019-07-15,8:20,R1,2019-07-15 08:20:39.310,396.9990532136799
197,39.4,10.600000381469728,75.0,-79.78214131093037,40.459273509467934,294.48167254638673,-0.0415375344455242,0.0193230491131544,-0.5587249398231506,0.8280868530273438,-0.8254438219367293,8.484642960053923,0.3404614018119396,-0.0703392475843429,-0.0936468839645385,-0.0610944740474224,-1.5007944627106191,0.0201427808403968,-9.209648242592811,10.0,250.0,25,2019-07-15,8:20,R1,2019-07-15 08:20:39.400,432.3287626155288
197,39.6,10.5,74.0,-79.78213243127442,40.45927703982499,294.4480021209717,-0.0484982132911682,0.023975521326065,-0.5579879879951477,0.8280836939811707,-0.821651630252832,8.424632809582974,0.4199066192503977,-0.0091652423143386,-0.2463774681091309,0.0313405357301235,-1.458128791898489,-0.2051364414766431,-9.354435242414477,10.0,250.0,25,2019-07-15,8:20,R1,2019-07-15 08:20:39.600,425.04890486865776
197,39.8,10.300000190734863,73.0,-79.78211457562735,40.45928403418592,294.3416159362793,-0.0655390545725822,0.0351377576589584,-0.5560609102249146,0.827808141708374,-0.7872267973574447,8.3546265001842,0.649532036709908,-0.071578674018383,-0.234570786356926,-0.2050369232892989,-1.2516505971550942,0.0502685632137581,-9.347871158123016,10.0,250.0,25,2019-07-15,8:20,R1,2019-07-15 08:20:39.800,482.7356203635136
197,39.9,10.300000190734863,73.0,-79.7821056434413,40.45928747747482,294.2718394012452,-0.0784739628434181,0.0419712923467159,-0.5547095537185669,0.8272712230682373,-0.7700375953631869,8.323338349675911,0.8192819937110519,-0.0536078698933124,-0.3134327530860901,-0.1633310765028,-1.5895325383543972,0.2567297690548003,-9.274272839426995,10.0,250.0,25,2019-07-15,8:20,R1,2019-07-15 08:20:39.900,491.55521901398606
197,40.01,10.100000381469728,66.0,-79.78208806843449,40.45929448744928,294.1803820343018,-0.1010562554001808,0.0563305057585239,-0.5530372262001038,0.8250844478607178,-0.7770985653140576,8.325017671588713,1.2506141657991554,-0.0233170706778764,-0.289557546377182,0.0015643067890778,-1.96527783215046,0.0649821220943704,-9.281867787837983,10.0,250.0,25,2019-07-15,8:20,R1,2019-07-15 08:20:40.010,477.31975628089634
197,40.2,10.100000381469728,62.0,-79.78207910049376,40.45929787225187,294.1106054992676,-0.1087840422987938,0.0620832592248916,-0.5518186688423157,0.8245047330856323,-0.7642838016850182,8.331342307722796,1.4720966410092984,-0.071202129125595,-0.1890758723020553,0.0912936702370643,-1.9489917285740377,0.0722204588726163,-9.291713329553604,10.0,250.0,25,2019-07-15,8:20,R1,2019-07-15 08:20:40.200,518.9526323080063
197,40.4,10.0,62.0,-79.78206121327467,40.45930477470085,293.9859297485352,-0.1224382519721984,0.0731623470783233,-0.5503707528114319,0.8226471543312073,-0.7294667532897834,8.438124645022501,1.8080821148478083,0.0468462519347667,-0.0989905297756195,0.0481048934161663,-1.4281404693424702,0.0169128885492682,-9.753818197846414,10.0,250.0,25,2019-07-15,8:20,R1,2019-07-15 08:20:40.400,522.4782370917018
197,40.5,10.0,62.0,-79.782052090667,40.45930837460594,293.9373762817383,-0.1302004605531692,0.0795760080218315,-0.5500674247741699,0.8210611939430237,-0.7263966267849484,8.518053828196116,2.020697495925515,0.1009907945990562,-0.1122945398092269,0.1022991612553596,-1.5992818933725357,0.092694137301296,-9.865612868070604,10.0,250.0,25,2019-07-15,8:20,R1,2019-07-15 08:20:40.500,577.0181890383792
197,40.7,10.0,56.0,-79.78203367589816,40.45931530872855,293.8374903411865,-0.1444375813007354,0.0949289202690124,-0.549313485622406,0.8175458312034607,-0.6990523844558028,8.65184161104591,2.484911021231275,0.1301508098840713,-0.2246735692024231,0.130448430776596,-1.801409174948931,-0.2042795137502252,-9.858211462497712,10.0,250.0,25,2019-07-15,8:20,R1,2019-07-15 08:20:40.700,614.5087780891118
197,40.81,10.100000381469728,53.0,-79.7820240894245,40.45931899480862,293.794700881958,-0.1486962586641311,0.0989798158407211,-0.5486326217651367,0.8167586922645569,-0.6993512186577538,8.760569112188591,2.732479517228996,0.0348234362900257,-0.038377471268177,0.0386118404567241,-1.5720189580321309,0.1720152721367776,-10.096328794956207,10.0,250.0,25,2019-07-15,8:20,R1,2019-07-15 08:20:40.810,601.9868120984755
197,40.9,10.100000381469728,53.0,-79.7820047088304,40.45932623383297,293.7013380737305,-0.1480207741260528,0.0965974628925323,-0.545701801776886,0.8191266655921936,-0.6551423120238636,8.962429756678823,3.0968814145659684,-0.1618524938821792,0.1359430253505706,0.1441484689712524,-1.906950101852417,0.1457553992327303,-10.45750779747963,10.0,250.0,25,2019-07-15,8:20,R1,2019-07-15 08:20:40.900,716.0554477842815
197,41.1,10.199999809265137,53.0,-79.78198494743798,40.45933373601992,293.63016917419435,-0.1314916759729385,0.075614184141159,-0.5469215512275696,0.8233281970024109,-0.5646133821600903,9.204032766733295,3.0972079429795003,-0.1070107817649841,0.3477073311805725,0.1939287781715393,-1.975107294023037,0.3267003107070923,-10.636292263269423,10.0,250.0,25,2019-07-15,8:20,R1,2019-07-15 08:20:41.100,629.9917023576563
197,41.3,10.399999618530272,53.0,-79.78197461304003,40.45933763019443,293.624498626709,-0.117087498307228,0.0632085055112838,-0.548306941986084,0.8256239295005798,-0.571970002765933,9.351934360894568,2.9456875142659418,-0.073398433625698,0.3416679799556732,0.0369181372225284,-2.0712134461104865,0.179023342821747,-10.755117040872577,10.0,250.0,25,2019-07-15,8:20,R1,2019-07-15 08:20:41.300,496.9321663750524
197,41.4,10.399999618530272,58.0,-79.78196462080733,40.45934153711399,293.55794360351564,-0.1048332303762436,0.05502924695611,-0.5496336817741394,0.8269732594490051,-0.580439252464647,9.479097858001548,2.641971803566921,0.0288719404488802,0.1734511107206344,0.0074039637111127,-1.7783015634119512,0.2105345178768038,-10.507947049140933,10.0,250.0,25,2019-07-15,8:20,R1,2019-07-15 08:20:41.400,480.45831869058753
197,41.6,10.600000381469728,58.0,-79.78194373028762,40.45934947160148,293.56658198547365,-0.0994092971086502,0.0576907582581043,-0.5509853959083557,0.8265619874000549,-0.6261132389210021,9.629349506863075,2.279688565174088,0.0316047295928001,-0.0890101641416549,-0.0588084273040294,-2.1057751683890817,0.1613121083378791,-9.455564006567002,10.0,250.0,25,2019-07-15,8:20,R1,2019-07-15 08:20:41.600,527.5288912563883
197,41.7,10.800000190734863,58.0,-79.78193368543485,40.45935372346141,293.4659483642578,-0.097342312335968,0.0613142289221286,-0.5515660047531128,0.8261597752571106,-0.6831533527721373,9.627690910824889,2.2512004885325707,0.0196910854429006,0.130685806274414,0.0434897057712078,-2.0657410369813443,0.122041394887492,-9.596145688891411,10.0,250.0,25,2019-07-15,8:20,R1,2019-07-15 08:20:41.700,504.8951759933483
197,41.9,11.0,58.0,-79.78191286345613,40.45936194053824,293.4041025848389,-0.0907062664628028,0.0551326125860214,-0.5536953210830688,0.8259264230728149,-0.7421250593442242,9.65944961984594,2.182406470461537,-0.0981029570102691,0.024017971009016,0.076463297009468,-2.12039130717516,0.0627266545873135,-9.68176120519638,10.0,250.0,25,2019-07-15,8:20,R1,2019-07-15 08:20:41.900,460.1748879543412
197,42.0,11.100000381469728,61.0,-79.7818919548567,40.4593699818298,293.3947146148682,-0.0947902500629425,0.0523854605853557,-0.5542674660682678,0.8252625465393066,-0.7607275702650709,9.682240591392672,2.0252855496079945,0.0580286122858524,-0.0487151741981506,-0.0175851043313741,-2.1324201992154124,0.2590088127180934,-9.104391928911207,10.0,250.0,25,2019-07-15,8:20,R1,2019-07-15 08:20:42.000,518.1872603898555
197,42.2,11.300000190734863,62.0,-79.78188140719014,40.45937411128931,293.3560431213379,-0.0944189503788948,0.0526665449142456,-0.5538232922554016,0.8255853652954102,-0.7613099585744579,9.684766463861472,2.053836997113021,0.0354490987956523,0.0237697772681713,-0.1880618333816529,-2.106500369310379,0.2845546400919557,-9.43642256140709,10.0,250.0,25,2019-07-15,8:20,R1,2019-07-15 08:20:42.200,471.1197849885502
197,42.3,11.300000190734863,62.0,-79.78187095109145,40.459378143082695,293.3478129119873,-0.093190461397171,0.0555163361132144,-0.5536524057388306,0.8256527781486511,-0.761939809256732,9.6862873160756,2.057599120029296,0.072822019457817,0.0476584956049919,0.0996304899454116,-2.290492511540652,0.1124811424780637,-9.552396821379665,10.0,250.0,25,2019-07-15,8:20,R1,2019-07-15 08:20:42.300,487.77383344075497
197,42.5,11.399999618530272,62.0,-79.78185017192834,40.459386453084896,293.3139116973877,-0.0872296467423439,0.0564651861786842,-0.5534388422966003,0.8263825774192809,-0.7913152121417795,9.68253830175352,2.022536894596185,-0.0227109417319297,0.1725033521652221,-0.2013073563575744,-2.028413581699133,0.3166474121063948,-9.465169227719308,10.0,250.0,25,2019-07-15,8:20,R1,2019-07-15 08:20:42.500,537.4270183558947
197,42.6,11.5,62.0,-79.78183974110527,40.45939050112735,293.3053591461182,-0.0837641283869743,0.0560789182782173,-0.5530286431312561,0.827041745185852,-0.7757558006939238,9.68567757055762,1.9642085632119048,0.0957507863640785,0.0724022388458252,-0.0693763718008995,-2.042152199596167,0.0948212355840951,-9.624923930168151,10.0,250.0,25,2019-07-15,8:20,R1,2019-07-15 08:20:42.600,434.689632092668
197,42.8,11.5,62.0,-79.78181866888897,40.45939870064971,293.2755396575928,-0.0813305750489234,0.0537938736379146,-0.5533837676048279,0.8271989226341248,-0.7690059245800451,9.710412312045268,1.8240156685142173,-0.0886528119444847,0.0635525211691856,0.1245774626731872,-2.102833141833544,-0.1858987365290522,-9.407432066202164,10.0,250.0,25,2019-07-15,8:20,R1,2019-07-15 08:20:42.800,507.4914151237936
197,42.91,11.5,62.0,-79.78179783305814,40.45940681167824,293.2436144561768,-0.0827750712633133,0.0490903444588184,-0.5541408061981201,0.8268412947654724,-0.7811192088682635,9.683024813832803,1.7970763426070198,-0.0790310874581337,0.0513994768261909,0.0183389205485582,-1.9344361084699635,-0.0561833370476961,-9.62051805317402,10.0,250.0,25,2019-07-15,8:20,R1,2019-07-15 08:20:42.910,411.5384801899381
197,43.1,11.600000381469728,62.0,-79.78178745350588,40.45941083508946,293.2304671020508,-0.0821028053760528,0.0509498417377471,-0.5544742941856384,0.8265721201896667,-0.7755995719994284,9.682422090122056,1.7479518319343106,0.073992408812046,-0.0094909518957138,0.1948281973600388,-1.8386024366319185,-0.1751331537030637,-9.4308466565609,10.0,250.0,25,2019-07-15,8:20,R1,2019-07-15 08:20:43.100,449.8138122865748
197,43.2,11.5,63.0,-79.78177690071223,40.45941486640189,293.218830368042,-0.083107553422451,0.0534896329045295,-0.5550416707992554,0.8259302377700806,-0.7901530943645788,9.677792900817996,1.7448577987968057,-0.0560789592564106,0.0038252505473792,0.1405493468046188,-1.9023018577694888,-0.0683601910527795,-9.34763960838318,10.0,250.0,25,2019-07-15,8:20,R1,2019-07-15 08:20:43.200,475.0506624877997
197,43.4,11.5,63.0,-79.78175595793226,40.45942297835798,293.1851942749024,-0.0883941054344177,0.0552507527172565,-0.5551160573959351,0.8252151608467102,-0.8070148353005562,9.668298184834224,1.8308516109941952,-0.0322163887321949,0.0634484961628913,0.1239129826426506,-1.843244687318802,-0.0571745497360825,-9.48977606534958,10.0,250.0,25,2019-07-15,8:20,R1,2019-07-15 08:20:43.400,478.10342850738016
