flight,time,wind_speed,wind_angle,position_x,position_y,position_z,orientation_x,orientation_y,orientation_z,orientation_w,velocity_x,velocity_y,velocity_z,angular_x,angular_y,angular_z,linear_acceleration_x,linear_acceleration_y,linear_acceleration_z,speed,payload,altitude,date,time_day,route,datetime,power
277,0.0,2.0,130.0,-79.78278712729606,40.45904798120861,270.4089294960797,-0.0147444289177656,-0.0020304531790316,-0.980863392353058,0.1941278278827667,-0.0026921874166442,0.0074076784865571,0.0306610111443313,0.0039756242185831,0.0031515806913375,-0.0020254859700798,-0.0173900636017788,0.2660570099204779,-9.806057807207107,10.0,500.0,25,2019-10-24,9:45,R1,2019-10-24 09:45:00.000,0.2027345116039332
277,0.1,2.0,129.0,-79.78278714304132,40.45904790337789,270.43338358309865,-0.0147483414039015,-0.0020247646607458,-0.9808651208877563,0.19411863386631,-0.0017851174939503,0.0090628317314973,0.0297814717286074,-0.0050206538289785,-0.0034921958576887,-0.0069646388292312,-0.022406080418732,0.2911203689128161,-9.802686302661895,10.0,500.0,25,2019-10-24,9:45,R1,2019-10-24 09:45:00.100,0.2025951286687306
277,0.3,2.0,129.0,-79.78278713664196,40.45904789661865,270.4363532690406,-0.0147563926875591,-0.0020424120593816,-0.9808708429336548,0.1940890550613404,-0.0013755705332748,0.0092679898578098,0.02974770013047,0.000126609520521,-0.0021971780806779,0.0076763089746236,-0.0180677890148945,0.2659807951189578,-9.806414487361913,10.0,500.0,25,2019-10-24,9:45,R1,2019-10-24 09:45:00.300,0.2026249921071869
277,0.4,2.0,131.0,-79.78278713904473,40.459047804891135,270.4637906281352,-0.0147320143878459,-0.0020509141031652,-0.9808804988861084,0.1940422058105468,-0.0016121936339085,0.0117319089338146,0.0317130240967553,-0.005738781299442,-0.0014410144649446,-0.006022079847753,-0.0205205520847812,0.2940665433369577,-9.80207819223404,10.0,500.0,25,2019-10-24,9:45,R1,2019-10-24 09:45:00.400,0.0
277,0.61,2.0,131.0,-79.78278713179192,40.459047795899096,270.46695415210723,-0.0147399799898266,-0.0020618645939975,-0.9808840751647948,0.1940233707427978,-0.0013705546915012,0.0119028298599151,0.0317480416377803,-0.0028298588003963,-0.0023007402196526,0.0052845207974314,-0.0199457662180066,0.2667077136598527,-9.806619139909747,10.0,500.0,25,2019-10-24,9:45,R1,2019-10-24 09:45:00.610,0.4054092963309562
277,0.71,1.8999999761581416,135.0,-79.78278713881478,40.459047712755606,270.49484792631864,-0.0147387143224477,-0.0020509271416813,-0.9808916449546814,0.1939850151538849,-0.0019298783640172,0.0112963934458061,0.0335335704756632,-0.0066471886821091,-0.0001112773679778,-0.0077432594262063,-0.020386915798299,0.2942850830219686,-9.803055846691132,10.0,500.0,25,2019-10-24,9:45,R1,2019-10-24 09:45:00.710,0.4053296402726664
277,0.9,1.8999999761581416,136.0,-79.78278713086678,40.4590477041438,270.49819250684976,-0.0147510105744004,-0.002059745369479,-0.9808965921401978,0.19395911693573,-0.0016821732941943,0.0115437569367904,0.0336162778260237,-0.003035835456103,0.0007599764503538,0.0046252724714577,-0.0205288797989487,0.267306742630899,-9.807062943577767,10.0,500.0,25,2019-10-24,9:45,R1,2019-10-24 09:45:00.900,0.4052499842143765
277,1.0,1.7999999523162842,135.0,-79.78278711225106,40.45904761780847,270.5247638328076,-0.014737076126039,-0.0020747953094542,-0.9809020161628724,0.1939327120780944,-0.0055022551319718,0.0123468280489085,0.0323202327534738,-0.0057813092134892,-0.0006539486348628,-0.0054046190343797,-0.0211741268984042,0.2942556094005704,-9.803085082769394,10.0,500.0,25,2019-10-24,9:45,R1,2019-10-24 09:45:01.000,0.6079944604090008
277,1.2,1.7999999523162842,135.0,-79.78278713033798,40.45904755654063,270.55308687222004,-0.0147360041737556,-0.002079420723021,-0.9809141755104064,0.1938713043928146,-0.0032541698683454,0.0063095305366016,0.0333318833281467,0.0047117234207689,0.0043934970162808,-0.0036420573014765,-0.0200185937457718,0.2660887858830392,-9.807627784609798,10.0,500.0,25,2019-10-24,9:45,R1,2019-10-24 09:45:01.200,0.2026946835747882
277,1.3,1.7999999523162842,132.0,-79.78278712190195,40.45904755281096,270.5564178330898,-0.0147327464073896,-0.0020894659683108,-0.9809166193008424,0.1938586682081222,-0.005339034744678,0.0065387245836098,0.0336872038440732,-0.0063994978554546,-0.0032268837094306,-0.0046785739250481,-0.0234506672224961,0.2888023133575917,-9.803473337888716,10.0,500.0,25,2019-10-24,9:45,R1,2019-10-24 09:45:01.300,0.4055088512370138
277,1.4,1.7999999523162842,133.0,-79.78278713011488,40.45904747357985,270.57959240210056,-0.0147374458611011,-0.0020620254799723,-0.9809192419052124,0.1938454955816269,-0.0025090043417236,0.0076973519167408,0.0320764818990071,0.006979645229876,-0.0009489894728176,0.0068376618437469,-0.0162898243241943,0.2661217678338289,-9.80563680768013,10.0,500.0,25,2019-10-24,9:45,R1,2019-10-24 09:45:01.400,0.405389367149579
277,1.6,1.7999999523162842,134.0,-79.78278713240769,40.4590473862778,270.60624347162246,-0.0147331822663545,-0.0020521075930446,-0.9809256196022034,0.1938135772943496,-0.0027888299533748,0.0087184716198651,0.0303741825942179,-0.0046073743142187,-0.001451059943065,-0.0038880582433193,-0.0220660328515805,0.2876640614680946,-9.803379197716714,10.0,500.0,25,2019-10-24,9:45,R1,2019-10-24 09:45:01.600,0.4053495694540435
277,1.81,1.7000000476837158,136.0,-79.78278712503962,40.45904738024184,270.60927140247816,-0.0147334989160299,-0.0020398069173097,-0.9809361100196838,0.1937607377767563,-0.0021780277949559,0.0086719549720754,0.0304005118223393,0.0045119896531105,0.0028737601824104,0.0069488114677369,-0.0171944593917578,0.2673297294974327,-9.80544151067734,10.0,500.0,25,2019-10-24,9:45,R1,2019-10-24 09:45:01.810,0.8107389366036251
277,1.9,1.7000000476837158,136.0,-79.78278713050348,40.45904728774292,270.6361435903311,-0.0147661985829472,-0.0020508817397058,-0.9809435606002808,0.1937204301357269,-0.0021574091858984,0.0097320473358377,0.0292426797915148,-0.0074356980621814,-0.0040504480712115,-0.0030075253453105,-0.0221285432414151,0.2815529171191156,-9.805181309580805,10.0,500.0,25,2019-10-24,9:45,R1,2019-10-24 09:45:01.900,0.4052699133957536
277,2.11,1.7000000476837158,134.0,-79.7827871232199,40.45904728085753,270.63906031382083,-0.0147646814584732,-0.0020518021192401,-0.9809489250183104,0.1936931163072586,-0.0016754593374298,0.0093677239204061,0.0292481527128913,0.0072292685508728,0.0003034294641111,0.008072942495346,-0.013878260141937,0.2717944440990687,-9.806507458090785,10.0,500.0,25,2019-10-24,9:45,R1,2019-10-24 09:45:02.110,0.4052699133957536
277,2.21,1.7000000476837158,132.0,-79.78278710341165,40.45904720299279,270.6667365534305,-0.0147845931351184,-0.0020619907882064,-0.9809569120407104,0.1936509907245636,-0.0061316857055127,0.0086252964419969,0.0288965900686985,-0.0038866535760462,-0.0023150637280195,0.0022620765957981,-0.0216998829483054,0.2723775942251086,-9.805815732479097,10.0,500.0,25,2019-10-24,9:45,R1,2019-10-24 09:45:02.210,0.4055088512370138
277,2.4,1.7000000476837158,130.0,-79.78278708589328,40.45904711079749,270.6942826611996,-0.0147940460592508,-0.0020478256046772,-0.9809648990631104,0.1936102956533432,-0.0082429158897839,0.0099954541283836,0.0287558791163644,-0.0013126577250659,-0.0042548249475657,-0.002852143254131,-0.0126432128506712,0.2813221896439791,-9.804407722949984,10.0,500.0,25,2019-10-24,9:45,R1,2019-10-24 09:45:02.400,0.0
277,2.5,1.600000023841858,128.0,-79.78278707246857,40.45904710528622,270.6971234483719,-0.0147979883477091,-0.0020466905552893,-0.9809695482254028,0.1935863941907882,-0.0079276396863329,0.0103799758058941,0.0286327083199907,0.0027097845450043,-0.0007885873783379,0.0065088276751339,-0.0184961181180551,0.2652613865956664,-9.805840290784836,10.0,500.0,25,2019-10-24,9:45,R1,2019-10-24 09:45:02.500,0.0
277,2.7,1.600000023841858,126.0,-79.78278707930009,40.45904700705596,270.7251740498544,-0.0147825637832283,-0.0020731878466904,-0.980977475643158,0.193546861410141,-0.0063410635016072,0.0103615835394124,0.0278505177095683,-0.0088379997760057,-0.0028217136859893,-0.005317039322108,-0.0117748487927019,0.2893256391584873,-9.803173375725748,10.0,500.0,25,2019-10-24,9:45,R1,2019-10-24 09:45:02.700,0.4052300853666087
277,2.8,1.600000023841858,127.0,-79.78278706719955,40.45904700083333,270.72793648672103,-0.0147924246266484,-0.0020746239461004,-0.9809828996658324,0.1935186386108398,-0.0057901976662514,0.0103620605661408,0.0278012575498785,0.003755041398108,-0.0003334663342684,0.0073798839002847,-0.0162228508642874,0.2664776439964772,-9.805853739380836,10.0,500.0,25,2019-10-24,9:45,R1,2019-10-24 09:45:02.800,0.2026648201363319
277,3.0,1.600000023841858,127.0,-79.7827870829708,40.45904690457999,270.7542265458107,-0.0147826457396149,-0.0020613609813153,-0.980987548828125,0.1934958100318908,-0.0041135965232785,0.0103121538163462,0.0273901286640625,0.0016472586430609,0.0009934285189956,-0.0028541134670376,-0.0140234264067839,0.2937378932721913,-9.803033627271653,10.0,500.0,25,2019-10-24,9:45,R1,2019-10-24 09:45:03.000,0.4051902573374638
277,3.1,1.600000023841858,125.0,-79.78278709058694,40.45904679705612,270.7841642303467,-0.0148062212392687,-0.0020568703766912,-0.9809956550598145,0.1934534162282944,-0.0013147881639538,0.0110920961221725,0.0269349654106721,0.0077170147560536,0.0031095237936824,0.0089149493724107,-0.0121129320608451,0.2712797612138093,-9.804926370978356,10.0,500.0,25,2019-10-24,9:45,R1,2019-10-24 09:45:03.100,0.0
277,3.3,1.600000023841858,126.0,-79.78278708229442,40.45904678896983,270.786866168499,-0.0147964730858802,-0.0020487473811954,-0.9810026288032532,0.1934188157320022,-0.0038479739017492,0.0107019292934809,0.0273142293042711,-0.0022784285247325,-9.476391824136954e-06,-0.0070820762775838,-0.0169217530195601,0.2962968541122973,-9.801573577523232,10.0,500.0,25,2019-10-24,9:45,R1,2019-10-24 09:45:03.300,0.2026847341509043
277,3.4,1.7000000476837158,124.0,-79.78278708813372,40.459046678775,270.8181035919189,-0.014807142317295,-0.0020317288581281,-0.981014370918274,0.1933584362268448,-0.0015139431709123,0.011139176963773,0.0270632787884542,0.0061808498576283,0.0046493145637214,0.00642527686432,-0.0113586081226822,0.2751030545309186,-9.805866018533706,10.0,500.0,25,2019-10-24,9:45,R1,2019-10-24 09:45:03.400,-0.4051902573374638
277,3.6,1.7000000476837158,123.0,-79.78278709172763,40.45904658201615,270.84781898093223,-0.0148402918130159,-0.0020272394176572,-0.9810221791267396,0.1933165192604065,-0.003192949753197,0.0093740614984779,0.0249777594011561,-0.0038201392162591,-0.0022832404356449,0.0009815624216571,-0.0172949721151962,0.2973601702786982,-9.802815526127816,10.0,500.0,25,2019-10-24,9:45,R1,2019-10-24 09:45:03.600,0.4051902573374638
277,3.7,1.7000000476837158,121.0,-79.78278708337959,40.45904657576885,270.85031736922264,-0.0148394899442791,-0.0020122635178267,-0.9810251593589784,0.1933014243841171,-0.0034097242796476,0.0089422135405058,0.025187781325206,0.0034547669347375,0.0012078704312443,0.0061214403249323,-0.0128677219490055,0.2767572135664523,-9.805615757703784,10.0,500.0,25,2019-10-24,9:45,R1,2019-10-24 09:45:03.700,0.8108982487202047
277,3.9,1.7000000476837158,124.0,-79.7827870733403,40.45904656998261,270.8528357846737,-0.0148399956524372,-0.0020067826844751,-0.9810280799865724,0.1932866424322128,-0.0061307337343248,0.0089991471543523,0.0254942421550492,-0.003176242345944,-0.0008753336733207,-0.0044427807442843,-0.0184374198387376,0.2954082783311605,-9.802215601801873,10.0,500.0,25,2019-10-24,9:45,R1,2019-10-24 09:45:03.900,0.6078749763215661
277,4.0,1.7000000476837158,125.0,-79.78278708254231,40.45904643220592,270.882679115057,-0.0148330209776759,-0.0019915627781301,-0.981030523777008,0.1932749152183532,-0.0019359442633444,0.0129842664267143,0.022508288800984,0.0082240002229809,0.0029798906762152,0.0047849952243268,-0.0124298214563168,0.2827754420042038,-9.803198518753051,10.0,500.0,25,2019-10-24,9:45,R1,2019-10-24 09:45:04.000,0.4052499842143765
277,4.2,1.7000000476837158,128.0,-79.78278710792456,40.45904635007549,270.91026256513595,-0.0148179149255156,-0.0020146202296018,-0.98103266954422,0.193264752626419,-0.0028554107641345,0.0069881697130346,0.0178813402254199,-0.0048908116295933,-0.0017474092310294,-0.0036382083781063,-0.0210266994056291,0.294428760074079,-9.80261321246624,10.0,500.0,25,2019-10-24,9:45,R1,2019-10-24 09:45:04.200,0.2026249921071869
277,4.3,1.7999999523162842,130.0,-79.78278709426253,40.459046340591605,270.91380683612823,-0.0148355048149824,-0.002024307148531,-0.9810388684272766,0.1932318955659866,-0.0038112216155434,0.0068474048688807,0.0178687375169777,0.0030718876514583,0.0066470857709646,-0.0001355493441224,-0.0105704057367984,0.2902487135119736,-9.801563052535055,10.0,500.0,25,2019-10-24,9:45,R1,2019-10-24 09:45:04.300,0.4052699133957536
277,4.5,1.7000000476837158,134.0,-79.78278713272005,40.45904621336899,270.94560686779016,-0.0148321101441979,-0.0020156225655227,-0.9810473322868348,0.1931896209716797,0.0012209612998516,0.0075433683755296,0.0168172617972164,0.0039614890702068,0.0026557836681604,0.0076990528032183,-0.0218463876773603,0.2869409801624715,-9.803848144412044,10.0,500.0,25,2019-10-24,9:45,R1,2019-10-24 09:45:04.500,0.2026050932594191
277,4.61,1.7000000476837158,134.0,-79.78278714135811,40.459046109359214,270.97658644151693,-0.0148160466924309,-0.0020286405924707,-0.981050670146942,0.1931737959384918,-0.0010267860104547,0.0061662813161306,0.0168583156257618,-0.0005780724459327,0.0015067021595314,-0.0048524420708417,-0.0149741391325369,0.2946023675613105,-9.8019711881876,10.0,500.0,25,2019-10-24,9:45,R1,2019-10-24 09:45:04.610,0.4054092963309562
277,4.8,1.7000000476837158,136.0,-79.78278713720924,40.45904610450211,270.9782686634064,-0.0148358969017863,-0.0020360758062452,-0.98105126619339,0.1931689083576202,-0.0018504761596595,0.0067071082864193,0.0169529700993312,-0.0020967721939086,-0.0035970907192677,-0.0014511956833302,-0.0223877096548676,0.2755588449910283,-9.803898430466653,10.0,500.0,25,2019-10-24,9:45,R1,2019-10-24 09:45:04.800,0.0
277,4.9,1.7000000476837158,137.0,-79.78278717202575,40.45904597822261,271.0093261404037,-0.0148033387959003,-0.0020195085089653,-0.98106187582016,0.1931177526712417,0.0019247864345596,0.0067271408403106,0.0117039614504069,-0.0005686176009476,-0.0009680148214101,-0.0073913251981139,-0.0169141379348002,0.2980891901627183,-9.80146189570427,10.0,500.0,25,2019-10-24,9:45,R1,2019-10-24 09:45:04.900,-0.202654870712448
277,5.1,1.7000000476837158,137.0,-79.78278718335139,40.45904585046525,271.043469707489,-0.0147854462265968,-0.0020000780932605,-0.9810701608657836,0.1930771768093109,0.0022221509653874,0.008210068360771,0.012626947472386,0.0060076103545725,0.0023236495908349,0.0036202664487063,-0.0200283786957152,0.2688507547415793,-9.804846264123915,10.0,500.0,25,2019-10-24,9:45,R1,2019-10-24 09:45:05.100,0.2026946835747882
277,5.2,1.600000023841858,137.0,-79.78278718086673,40.45904584311943,271.0447523994446,-0.0147909792140126,-0.002012912184,-0.9810765385627748,0.1930442899465561,-0.000206587588913,0.0084545557091355,0.013058282988408,-0.0082429274916648,-0.0026063956320285,-0.0074244015850126,-0.0212783489492721,0.2941756669990718,-9.802840669155124,10.0,500.0,25,2019-10-24,9:45,R1,2019-10-24 09:45:05.200,-0.4054491243601011
277,5.41,1.7000000476837158,138.0,-79.78278717684503,40.45904583611622,271.046054582119,-0.0147953610867261,-0.0020066478755325,-0.9810803532600404,0.1930244714021682,0.0001705723428903,0.0087589683743939,0.0130045425864851,0.002744618570432,-0.000840060703922,0.0075227338820695,-0.0184890032443218,0.2648332059569657,-9.806044943332672,10.0,500.0,25,2019-10-24,9:45,R1,2019-10-24 09:45:05.410,-0.202654870712448
277,5.5,1.600000023841858,139.0,-79.78278718535627,40.459045722130455,271.0794286532402,-0.0147978560999035,-0.0019995814654976,-0.9810877442359924,0.1929867714643478,-0.003010056312628,0.0066891690170247,0.0109166535439062,-0.007709049154073,-0.0007535339682362,-0.0078324126079678,-0.0219592366553843,0.2872466250881553,-9.803769207000732,10.0,500.0,25,2019-10-24,9:45,R1,2019-10-24 09:45:05.500,-0.6077853860061969
277,5.71,1.600000023841858,136.0,-79.7827871611495,40.459045552762255,271.118157784462,-0.0147990938276052,-0.0019683346617966,-0.9811006784439088,0.1929212510585785,-0.0049030892338481,0.0162980181457521,0.016990993944179,-0.0033027634490281,-0.0018603557255119,-0.0088756065815687,-0.0221791559178382,0.2760080207884312,-9.805205867886544,10.0,500.0,25,2019-10-24,9:45,R1,2019-10-24 09:45:05.710,7.87325388830186
277,5.8,1.600000023841858,135.0,-79.78278714853822,40.459045540928656,271.1198491854668,-0.0148107195273041,-0.0019739039707928,-0.981098771095276,0.192930206656456,-0.0051206067617345,0.0166013712418314,0.0171939587917216,-0.0045260158367455,-0.0041539133526384,0.0084936544299125,-0.0182155842427164,0.2781969990581274,-9.806579378843306,10.0,500.0,25,2019-10-24,9:45,R1,2019-10-24 09:45:05.800,7.479443875930656
277,6.0,1.5,134.0,-79.78278715535974,40.45904534010555,271.16208473873144,-0.0148118492215871,-0.0019403983606025,-0.9811100363731384,0.1928732544183731,0.0007762478862029,0.0297384837972805,0.0284082401829572,0.0057887281291186,-0.0003880441945511,-0.0025785183534026,-0.0139806686423253,0.2857275732792914,-9.801862429976463,10.0,500.0,25,2019-10-24,9:45,R1,2019-10-24 09:45:06.000,7.675915596685628
277,6.1,1.600000023841858,133.0,-79.78278715697812,40.45904515939247,271.20653651189804,-0.0148245319724082,-0.001925456803292,-0.981120467185974,0.1928193867206572,0.0013363277457957,0.0317227963455673,0.0343054320783701,0.0051338127814233,-0.0017725577345117,0.0116628827527165,-0.0137828328972682,0.2671567432768643,-9.809254480004313,10.0,500.0,25,2019-10-24,9:45,R1,2019-10-24 09:45:06.100,7.884513785049648
277,6.3,1.7000000476837158,134.0,-79.78278712504873,40.45904510760477,271.2134376568794,-0.0148278968408703,-0.0019187956349924,-0.981123983860016,0.1928007900714874,-0.0021029232199612,0.0323876386720281,0.0349329402448711,-0.0033270227722823,-0.0043904003687202,-0.0037100678309798,-0.016939895376563,0.2966224526613951,-9.804452746510506,10.0,500.0,25,2019-10-24,9:45,R1,2019-10-24 09:45:06.300,9.096172400719013
277,6.4,1.7000000476837158,132.0,-79.78278715046173,40.45904498183023,271.2549131317138,-0.0148220416158437,-0.00191676907707,-0.9811272025108336,0.192784920334816,-0.0028463078754255,0.0264672557187884,0.0354972150829271,0.0040682503022253,0.0038821049965918,0.0002076902310363,-0.0115086428797803,0.2773372756317258,-9.809739798903466,10.0,500.0,25,2019-10-24,9:45,R1,2019-10-24 09:45:06.400,9.09303628448106
277,6.6,1.7000000476837158,132.0,-79.78278713364061,40.459044961448576,271.2584698600769,-0.0148146152496337,-0.0019160071387887,-0.9811368584632874,0.1927363276481628,-0.0051712408080338,0.026222640074012,0.0358560448911863,-0.0027037158142775,0.002145237987861,-0.0022774029057472,-0.0121297565102577,0.2944629297405481,-9.801821499466897,10.0,500.0,25,2019-10-24,9:45,R1,2019-10-24 09:45:06.600,11.10440195877237
277,6.7,1.7999999523162842,132.0,-79.78278717271512,40.45904480082622,271.30197123718256,-0.0148011725395917,-0.0019084012601524,-0.981148362159729,0.192679226398468,-0.0012647656178484,0.0229584453336246,0.0334740707885659,0.0084156282246112,-0.0006597123574465,0.0055062337778508,-0.0118136653967667,0.2813563593104481,-9.815559532642364,10.0,500.0,25,2019-10-24,9:45,R1,2019-10-24 09:45:06.700,258.6394148571271
277,6.9,1.8999999761581416,131.0,-79.78278715774356,40.45904478407019,271.3053387207985,-0.0148385856300592,-0.0018900365103036,-0.9811497926712036,0.1926689893007278,-0.0060771134073028,0.0218760545183044,0.0337195029575952,-0.0018594545545056,-0.0042669135145843,-0.0096506644040346,0.0043803525273688,0.338495606482029,-9.802309157252314,10.0,500.0,25,2019-10-24,9:45,R1,2019-10-24 09:45:06.900,17.95847857339345
277,7.0,2.0,131.0,-79.78278720282759,40.45904462183993,271.349409143448,-0.0147906886413693,-0.0018538266886025,-0.9811496138572692,0.1926738172769546,-0.0034377933417508,0.019616198234274,0.0309360520789758,0.023471301421523,-0.0372891016304492,0.0400168634951114,0.0090596348186954,0.2946656819432974,-9.822980818748476,10.0,500.0,25,2019-10-24,9:45,R1,2019-10-24 09:45:07.000,7.447395353486286
277,7.21,2.0,131.0,-79.78278726221559,40.45904445157319,271.394989768982,-0.0147540206089615,-0.0019386537605896,-0.9811677932739258,0.1925834715366363,-0.0003151015042908,0.0157068807154892,0.0307336384544155,0.00819993019104,0.0478639304637908,0.0265505835413932,-0.0315964461886324,0.2591330843232572,-9.78958269238472,10.0,500.0,25,2019-10-24,9:45,R1,2019-10-24 09:45:07.210,72.85802565901851
277,7.3,2.0999999046325684,131.0,-79.78278725075731,40.4590444372224,271.39803556632995,-0.0148026384413242,-0.0018764614360407,-0.9811617136001588,0.1926115006208419,-0.0024364860220013,0.0191021794628067,0.031497596795732,0.0006386643508449,-0.022101366892457,-0.0099182538688182,0.0016082424041815,0.3168651843443513,-9.843299893140792,10.0,500.0,25,2019-10-24,9:45,R1,2019-10-24 09:45:07.300,17.603205668263513
277,7.5,2.0999999046325684,133.0,-79.78278734757737,40.45904427970283,271.4405167503357,-0.0147782545536756,-0.0018835116643458,-0.981171488761902,0.1925632357597351,0.0021535848125971,0.0165141613840082,0.029310261097335,0.033669427037239,-0.0038726527709513,-0.0479118414223194,-0.0237541171582415,0.3168242172896862,-9.794179773330688,10.0,500.0,25,2019-10-24,9:45,R1,2019-10-24 09:45:07.500,6.260387924037616
277,7.6,2.299999952316284,132.0,-79.78278739804341,40.45904409559255,271.487592737198,-0.0147779854014515,-0.0018864949233829,-0.98118257522583,0.1925068795681,-0.0014854428151017,0.014969721463162,0.0290936847758802,0.0167957320809364,-0.0066800294443964,-0.0226505808532238,-0.0262473790487274,0.2603942921943962,-9.814160878658296,10.0,500.0,25,2019-10-24,9:45,R1,2019-10-24 09:45:07.600,40.78121062680657
277,7.8,2.299999952316284,134.0,-79.7827873774987,40.45904407126029,271.49343387317657,-0.01480133831501,-0.0018923952011391,-0.9811908006668092,0.1924630552530288,-0.0018599557890665,0.0167804798801561,0.0296869592866282,0.0245522987097501,-0.0068516172468662,-0.030438607558608,0.006804886793252,0.2113799887150526,-9.8348015499115,10.0,500.0,25,2019-10-24,9:45,R1,2019-10-24 09:45:07.800,118.04647713449867
277,7.9,2.299999952316284,135.0,-79.78278748587404,40.4590438774616,271.536027352333,-0.0147798685356974,-0.0019161105155944,-0.9811915755271912,0.1924604326486587,0.0029543428122374,0.0150085515565038,0.0243103858312416,0.0090659912675619,0.0475760251283645,0.0284201484173536,-0.0090371298906393,0.2587109884433448,-9.782246775627137,10.0,500.0,25,2019-10-24,9:45,R1,2019-10-24 09:45:07.900,141.01971425830018
277,8.1,2.400000095367432,139.0,-79.78278759741812,40.45904376136365,271.5784377260208,-0.0146893830969929,-0.0018063802272081,-0.981187343597412,0.19249027967453,0.0009790166420813,0.0036067750321961,0.016963171847544,-0.0272426083683967,-0.01796231046319,0.0642429664731025,-0.0132296360470354,0.2488797541335225,-9.826137145757675,10.0,500.0,25,2019-10-24,9:45,R1,2019-10-24 09:45:08.100,197.2867971253363
277,8.2,2.400000095367432,139.0,-79.78278759433316,40.45904375961674,271.58019200992584,-0.0144388247281312,-0.0017387822736054,-0.9812039732933044,0.192424789071083,0.0054843628238333,0.0005717919218617,0.0181527562520834,0.0646597221493721,0.015253460034728,-0.0761631950736045,-0.0701564100198447,0.1858692446351051,-9.825826073884963,10.0,500.0,25,2019-10-24,9:45,R1,2019-10-24 09:45:08.200,232.3050344316289
277,8.4,2.400000095367432,141.0,-79.78278768922459,40.45904356356953,271.6199514074325,-0.0129240453243255,-0.0015892816008999,-0.9812316298484802,0.1923929154872894,0.0057498139739282,0.0115423565167049,0.0145217822094352,0.0780260786414146,-0.122706614434719,0.0348337516188621,-0.0443498973269015,0.5047660075128079,-9.812046525478364,10.0,500.0,25,2019-10-24,9:45,R1,2019-10-24 09:45:08.400,287.9982771631258
277,8.5,2.400000095367432,142.0,-79.78278768537419,40.45904355590071,271.62149361801147,-0.0120231276378035,-0.0014654180267825,-0.9812567234039308,0.1923242956399917,0.0073061122689037,0.0093585645165922,0.0193565996455759,0.1428535729646682,-0.0476874560117721,-0.1590182185173034,-0.027502040779218,0.6761941643804312,-9.854976782798769,10.0,500.0,25,2019-10-24,9:45,R1,2019-10-24 09:45:08.500,322.53462787957875
277,8.7,2.400000095367432,142.0,-79.782787778204,40.459043438928106,271.6627762718201,-0.0096292020753026,-0.0044995280914008,-0.9813273549079896,0.1920511126518248,-0.0018408859776521,-0.0083264201582902,0.0226540448466135,0.0019417032599449,0.0065058497712016,0.0350821241736412,0.093766553197056,0.0974955144803971,-9.914956351518631,10.0,500.0,25,2019-10-24,9:45,R1,2019-10-24 09:45:08.700,393.2331999720737
277,8.8,2.400000095367432,144.0,-79.7827877822328,40.459043441900185,271.66553477478027,-0.0081684291362762,-0.0061756782233715,-0.9813581109046936,0.191915675997734,-0.0030821631427097,-0.0116929769117435,0.0291899270997022,0.0153665570542216,0.074385181069374,0.1050320863723754,0.0334798503387719,0.1949043622612953,-9.894482910633087,10.0,500.0,25,2019-10-24,9:45,R1,2019-10-24 09:45:08.800,418.40085428788007
277,9.0,2.400000095367432,144.0,-79.78278779679125,40.45904337932103,271.7013242645264,-0.0065756924450397,-0.0089693469926714,-0.9813271760940552,0.1920243203639984,-0.0030831686050869,-0.01677199302508,0.0380134915628576,-0.0019251718185842,0.1848023682832718,-0.2833319902420044,0.2505501026473939,0.1357973808422684,-9.91130184173584,10.0,500.0,25,2019-10-24,9:45,R1,2019-10-24 09:45:09.000,481.5704612917687
277,9.21,2.400000095367432,144.0,-79.7827878392182,40.459043256679074,271.73584763240814,-9.62133490247652e-05,-0.0187375098466873,-0.9809240102767944,0.1934868395328521,-0.0038306940641014,-0.0538298692840277,0.0746516725289709,0.0455253906548023,0.189704954624176,-0.0553981885313987,0.0199905659398064,0.1145255026593804,-10.080450096130374,10.0,500.0,25,2019-10-24,9:45,R1,2019-10-24 09:45:09.210,541.6912544290971
277,9.31,2.299999952316284,147.0,-79.78278791611379,40.45904343213101,271.76115957927703,0.0109922029078006,-0.0405694432556629,-0.980040967464447,0.1943014711141586,-0.0153826647465666,-0.1487791341527957,0.2049266834364481,0.0316904559731483,0.2104699611663818,-0.0172405987977981,0.0535205561527982,0.0882536703720688,-10.21537459731102,10.0,500.0,25,2019-10-24,9:45,R1,2019-10-24 09:45:09.310,570.5769485040947
277,9.41,2.299999952316284,145.0,-79.78278776286774,40.45904317336722,271.78692177963256,0.0121427588164806,-0.0498000271618366,-0.979805052280426,0.1932735294103622,-0.0111435575783405,-0.1707056496898447,0.2493873020176744,0.0101700415834784,-0.0702876076102256,-0.0224515032023191,0.6579276088625193,0.1117042393796146,-10.52234055519104,10.0,500.0,25,2019-10-24,9:45,R1,2019-10-24 09:45:09.410,542.5357361096903
277,9.6,2.299999952316284,144.0,-79.78278784859053,40.45904335218308,271.8133509559632,0.0091570345684885,-0.0377486869692802,-0.9804258942604064,0.1930188089609146,-0.0027878836862729,-0.1873676239114496,0.2992792020852209,-0.0028728067409247,-0.5702736973762512,0.0606937780976295,0.6522256234288216,-0.239065330568701,-10.088382428884506,10.0,500.0,25,2019-10-24,9:45,R1,2019-10-24 09:45:09.600,441.02987322122135
277,9.7,2.299999952316284,146.0,-79.78278838392444,40.45904393999836,271.8780043525696,-0.0051487386226654,0.0030481375288218,-0.98159658908844,0.1908728331327438,-0.0062107112562158,-0.2903378865134807,0.218878994004329,-0.0929328128695488,-0.3710813820362091,0.1328080892562866,0.1170939743611961,0.1002200885675847,-9.564361394047738,10.0,500.0,25,2019-10-24,9:45,R1,2019-10-24 09:45:09.700,452.45708878947335
277,9.9,2.299999952316284,141.0,-79.78278873872273,40.459044506669,271.9384293956757,-0.0082705337554216,0.0227530933916568,-0.981523871421814,0.1898023933172226,-0.0132234513681223,-0.2512939066542048,0.0515269151605726,-0.0088976621627807,-0.0306781269609928,0.0177053324878215,-0.0056098643783479,0.2391779260151088,-9.418608434200287,10.0,500.0,25,2019-10-24,9:45,R1,2019-10-24 09:45:09.900,485.2942121177912
277,10.0,2.299999952316284,140.0,-79.78278882242297,40.45904470601008,271.9409948987961,-0.0066292965784668,0.022324301302433,-0.9814146161079408,0.1904811412096024,-0.0165099578498238,-0.2137069590163366,-0.0137387781125981,0.010426620952785,0.0730452910065651,-0.0385419428348541,-0.0962318854965269,-0.003347878139466,-9.24727624475956,10.0,500.0,25,2019-10-24,9:45,R1,2019-10-24 09:45:10.000,483.1482668855461
277,10.2,2.299999952316284,140.0,-79.78278889944332,40.45904488833373,271.98717502784734,-0.0058752615004777,0.015943743288517,-0.9813523292541504,0.1914656311273574,-0.0321975499807338,-0.1993323534581644,-0.0270531922365221,-0.042786069214344,0.1762954741716385,0.0423023961484432,0.0345986693724989,-0.1739314229786396,-9.33513943076134,10.0,500.0,25,2019-10-24,9:45,R1,2019-10-24 09:45:10.200,535.564418576123
277,10.3,2.299999952316284,141.0,-79.7827889848857,40.4590451886316,271.97972790431976,-0.0008426955319009,0.0018148643430322,-0.981088161468506,0.1935514658689499,-0.0291962540432911,-0.144143011693911,-0.0399748468622096,0.0345034748315811,0.139791265130043,0.0126866297796368,0.1726816354505717,-0.13794975919649,-9.717994646430016,10.0,500.0,25,2019-10-24,9:45,R1,2019-10-24 09:45:10.300,541.026677557562
277,10.5,2.400000095367432,141.0,-79.7827892026572,40.45904550938409,272.042328040123,0.0011885002022609,-0.0005078414687886,-0.980868637561798,0.1946665644645691,-0.0309675700494632,-0.1325803310365258,0.0380155674037882,-0.0673272460699081,-0.0785820707678794,0.0112295653671026,0.1787854890525341,0.2004498250409961,-9.790880189538004,10.0,500.0,25,2019-10-24,9:45,R1,2019-10-24 09:45:10.500,514.2750522744644
277,10.6,2.400000095367432,140.0,-79.78278927121605,40.45904557640853,272.07528440189355,0.0011697182198986,0.0014873228501528,-0.9806494712829592,0.1957631111145019,-0.0081513681028146,-0.1332290138352172,0.0622411411005695,0.1408534049987793,-0.0510218776762485,-0.00227105547674,-0.0103164892550557,0.0292479417147114,-9.911978949308397,10.0,500.0,25,2019-10-24,9:45,R1,2019-10-24 09:45:10.600,535.5952219937352
277,10.8,2.400000095367432,141.0,-79.78278933922729,40.45904578723512,272.09366862010955,-0.0041015055030584,0.0052153505384922,-0.9808157086372375,0.194824531674385,-0.0136686725569422,-0.1110864443693238,0.1189653121595036,-0.0553570687770843,-0.0189422704279422,0.088324062526226,0.0287392933387309,0.2125819569826126,-10.075168890953064,10.0,500.0,25,2019-10-24,9:45,R1,2019-10-24 09:45:10.800,549.2482870264939
277,10.9,2.400000095367432,141.0,-79.7827895601097,40.45904575225901,272.116887251854,-0.0056839385069906,0.006168819963932,-0.980872929096222,0.1944683939218521,0.0146246166867854,-0.0836542641578458,0.1460103792576147,0.1645283997058868,-0.0543193034827709,-0.0175315625965595,0.0398355727549642,0.0999525053612888,-10.051232728958132,10.0,500.0,25,2019-10-24,9:45,R1,2019-10-24 09:45:10.900,528.7518412072241
277,11.1,2.400000095367432,140.0,-79.78278979220109,40.45904583264736,272.1514752311706,-0.0035935174673795,0.0090009765699505,-0.9808721542358398,0.1944119036197662,0.0053805613530137,-0.0426389605790703,0.1565675736196607,0.0189405754208564,-0.0779713317751884,0.0323668420314788,0.1628131982311606,0.3183342607319355,-10.060988223552704,10.0,500.0,25,2019-10-24,9:45,R1,2019-10-24 09:45:11.100,546.4518237913035
277,11.2,2.400000095367432,140.0,-79.78278981066174,40.45904585836917,272.1677254838944,-0.0020398355554789,0.0104780243709683,-0.9810125827789308,0.1936505138874054,0.0097087913671799,-0.0158726826650793,0.1635923167555914,0.0906670838594436,-0.1026123911142349,0.009508847258985,0.1102508408389985,-0.2119047397747636,-9.877895529270171,10.0,500.0,25,2019-10-24,9:45,R1,2019-10-24 09:45:11.200,559.5433767477297
277,11.4,2.400000095367432,140.0,-79.78278984523031,40.45904593081629,272.2010928792953,-0.0044333254918456,0.0116558112204074,-0.981195628643036,0.1926130503416061,0.0130279568164768,0.0022993686551474,0.0576799084598549,-0.0398730225861072,-0.051479984074831,-0.0207063760608434,0.0911250369809568,0.0784561854600906,-9.89439403295517,10.0,500.0,25,2019-10-24,9:45,R1,2019-10-24 09:45:11.400,412.9313278791087
277,11.5,2.5,140.0,-79.78278986150741,40.459045925572326,272.20208100509643,-0.0052026715129613,0.0085873249918222,-0.9809837341308594,0.1938304156064987,0.0235361733327774,0.0024464701208124,-0.0235926141619924,0.0674297288060188,0.1349908709526062,-0.0302943997085094,-0.2209893211908638,0.0564267182629555,-9.065740079283716,10.0,500.0,25,2019-10-24,9:45,R1,2019-10-24 09:45:11.500,560.071749731942
277,11.7,2.5,140.0,-79.78279014988979,40.45904604788618,272.22969154548645,0.000484910357045,-0.007780909538269,-0.9807157516479492,0.1952840983867645,0.0163084299951311,-0.0001257670087458,0.022302420727931,-0.1230308562517166,0.1026839837431907,0.0251712556928396,-0.1077079781144857,0.0921078351605683,-9.42230095088482,10.0,500.0,25,2019-10-24,9:45,R1,2019-10-24 09:45:11.700,662.3647282768943
277,11.8,2.5999999046325684,140.0,-79.78279017299383,40.45904604178017,272.23622862529754,-0.0032026327680796,-0.0104095563292503,-0.9807933568954468,0.1947453469038009,0.0190847771818224,-0.0075268428882737,0.1136695767736228,-0.116575226187706,0.0386711470782756,0.0272657535970211,0.1729710178077221,0.1456738762557506,-10.627004545927049,10.0,500.0,25,2019-10-24,9:45,R1,2019-10-24 09:45:11.800,680.3951307376628
277,12.0,2.5999999046325684,141.0,-79.78279029053049,40.45904590968357,272.302211443901,-0.008169962093234,-0.0029713676776736,-0.9810336828231812,0.1936424225568771,0.0120628227945938,-0.000594827014885,0.4261152547861121,0.0121929664164781,-0.1127455085515976,-0.0519436337053775,0.0407658282201737,0.1673053216561675,-10.895019861459732,10.0,500.0,25,2019-10-24,9:45,R1,2019-10-24 09:45:12.000,783.2048902012466
277,12.1,2.5999999046325684,141.0,-79.7827904311385,40.45904597232944,272.3543545408249,-0.0080696586519479,0.0020759361796081,-0.9809762835502625,0.1939490288496016,0.0100384189785259,-0.0132681992068915,0.6262874420946354,0.0756434798240661,-0.0584750398993492,7.817865844117478e-05,-0.1292589512094855,0.1423956165276468,-12.006802428960803,10.0,500.0,25,2019-10-24,9:45,R1,2019-10-24 09:45:12.100,778.0065882175477
277,12.3,2.5999999046325684,141.0,-79.78279043912829,40.459045986956646,272.4285948677063,-0.0022230143658816,0.000795962056145,-0.9811221957206726,0.1933746635913849,0.0181112560305958,-0.0270057297693603,0.8539254349955809,0.1542983204126358,0.1552399694919586,0.0340008847415447,-0.0131157523859292,0.1532392231374979,-12.104011219739911,10.0,500.0,25,2019-10-24,9:45,R1,2019-10-24 09:45:12.300,747.3146812980704
277,12.4,2.700000047683716,139.0,-79.78279056259474,40.45904599868289,272.6474912567138,0.0127810705453157,-0.0088310074061155,-0.9820382595062256,0.1880416274070739,0.024801429396499,-0.0389154081413872,1.2905583100504814,0.0991251170635223,0.0163075253367424,0.0986940190196037,0.0270096846646629,0.0964397448766976,-12.04417081475258,10.0,500.0,25,2019-10-24,9:45,R1,2019-10-24 09:45:12.400,773.8429649630416
277,12.6,2.799999952316284,139.0,-79.78279082666532,40.459046052018095,272.9486847324372,0.0139654856175184,-0.0043629743158817,-0.9843154549598694,0.1758100241422653,0.0679347121426684,-0.0529078492060327,1.6814815059622992,-0.0114390719681978,-0.2516295313835144,0.1517015993595123,0.0606985112931579,-0.0771972616575658,-11.993287174701695,10.0,500.0,25,2019-10-24,9:45,R1,2019-10-24 09:45:12.600,750.7291171430261
277,13.9,3.400000095367432,142.0,-79.78279142295888,40.459045948725965,276.4736254615784,0.0005263129714876,0.0392968170344829,-0.9799509644508362,0.1953245848417282,-0.1342335943602515,0.0011490558303392,3.631866476188653,0.0245081074535846,0.0660204589366912,-0.0352372750639915,-0.104779655970633,0.0720844380185008,-10.958466829061509,10.0,500.0,25,2019-10-24,9:45,R1,2019-10-24 09:45:13.900,723.0269110413137
277,14.2,3.5,144.0,-79.78279119641785,40.45904549059935,277.2092469139099,0.0046346466988325,0.0156540367752313,-0.9805160760879515,0.1957594752311706,-0.1352852941135345,0.0660324183158445,3.680271459503927,-0.171194776892662,0.4428552985191345,0.0382876694202423,-0.2592730337753892,-0.032880067625083,-9.833080129623411,10.0,500.0,25,2019-10-24,9:45,R1,2019-10-24 09:45:14.200,611.5896439498102
277,14.4,3.5,145.0,-79.78279081216705,40.459045018128656,277.93263034057617,3.577939423848875e-05,-0.0217253807932138,-0.9808874726295472,0.1933594197034836,-0.0465892082941215,0.3308993974714518,3.551899302532316,-0.0455714091658592,0.2857703864574432,0.0986998379230499,0.014688964029774,0.1016489105299115,-9.232037231326103,10.0,500.0,25,2019-10-24,9:45,R1,2019-10-24 09:45:14.400,590.9516052534018
277,14.5,3.5,150.0,-79.78279076542809,40.4590445863818,278.6130741043091,0.0051092319190502,-0.0240745637565851,-0.9816114902496338,0.1892971247434616,-0.0170983464963568,0.3918664347514,3.3638293387865303,0.0150202447548508,-0.1049368530511856,0.0639333128929138,0.0269340614369139,0.0765850947238504,-9.013176534175871,10.0,500.0,25,2019-10-24,9:45,R1,2019-10-24 09:45:14.500,563.1187543789639
277,14.7,3.5,152.0,-79.78279098578864,40.45904496560775,278.8044002456665,0.005465620663017,-0.0185112878680229,-0.9821587800979614,0.1870606988668441,-0.0307715292198515,0.2742005563481197,3.1979439815944666,-0.0283326581120491,-0.0814959034323692,0.0464000962674617,0.0207688897289335,-0.0293597011920064,-9.04513390660286,10.0,500.0,25,2019-10-24,9:45,R1,2019-10-24 09:45:14.700,567.525366742775
277,14.8,3.5,152.0,-79.78279085558192,40.45904484561714,279.4313552780152,0.0025099134072661,-0.0080715557560324,-0.9826581478118896,0.1852338314056396,-0.0297642445984169,0.1343130625508583,3.062982796772297,0.0287271775305271,-0.0353005938231945,0.024113543331623,-0.0872483238670975,0.0102951743267476,-9.070854054093363,10.0,500.0,25,2019-10-24,9:45,R1,2019-10-24 09:45:14.800,577.9072817999623
277,15.0,3.5,152.0,-79.78279075656198,40.459043811967504,279.8670490188598,0.0004996766801923,-0.0039137583225965,-0.9827212691307068,0.1850497275590897,-0.0069993293979523,0.1418694183886763,3.039327574092288,-0.0147706931456923,-0.129795029759407,-0.0463394075632095,-0.1351955470349639,-0.1523181861732155,-9.141214769482614,10.0,500.0,25,2019-10-24,9:45,R1,2019-10-24 09:45:15.000,609.6825038954959
277,15.1,3.400000095367432,149.0,-79.7827902380593,40.4590430504456,280.6543710632324,-0.0044795568101108,-0.0020669810473918,-0.982519268989563,0.1860958486795425,-0.0079646988364789,0.1043712526743276,3.01891181450739,0.001896153204143,-0.0070686568506062,0.0129675772041082,-0.1297759364359081,-0.0076816288148984,-9.300981166362764,10.0,500.0,25,2019-10-24,9:45,R1,2019-10-24 09:45:15.100,607.2435053035151
277,15.3,3.400000095367432,147.0,-79.78279016588594,40.45904297516113,280.95390395355224,-0.0056497948244214,-0.0033701183274388,-0.9823737144470216,0.1868122220039368,-0.0048653394707128,0.0927550435152106,2.970219297594173,-0.0042602336034178,0.0454065613448619,-0.0234975144267082,-0.1079208807181567,0.0409722897503524,-9.30580979704857,10.0,500.0,25,2019-10-24,9:45,R1,2019-10-24 09:45:15.300,589.7288997244686
277,15.41,3.400000095367432,147.0,-79.78279001886943,40.4590426143689,281.66158370208734,-0.0006874344544485,-0.0048608658835291,-0.9820364117622375,0.188627690076828,-0.0087113111084021,0.0947023094917728,2.9541410675190782,0.0630597546696662,-0.0129948072135448,-0.0532611310482025,-0.1135320607200265,0.0113444754481315,-9.412233799695969,10.0,500.0,25,2019-10-24,9:45,R1,2019-10-24 09:45:15.410,605.8085708078979
277,15.5,3.299999952316284,148.0,-79.78278994825345,40.459042567135945,281.9553811950684,0.0033971448428928,-0.0050166347064077,-0.9819067120552064,0.1892685890197754,-0.0336478875493023,0.0815156898112524,2.9185438491654487,0.0002874442143365,0.0572308674454689,-0.0366622246801853,-0.0394879375118762,0.1082174259144812,-9.453999876379967,10.0,500.0,25,2019-10-24,9:45,R1,2019-10-24 09:45:15.500,573.1514510606394
277,15.7,3.2000000476837163,152.0,-79.78278978925017,40.45904222866953,282.59787921142583,0.0064809364266693,-0.0039099669083952,-0.9817894101142884,0.1898220181465149,-0.045728412935149,0.0822496972649958,2.8421771322772367,0.1013373434543609,0.0002698395983316,0.015329485759139,-0.0613176720449701,-0.0500936263985931,-9.156248545646667,10.0,500.0,25,2019-10-24,9:45,R1,2019-10-24 09:45:15.700,543.4332484892439
277,15.9,3.2000000476837163,153.0,-79.78278974508245,40.459042199609954,282.8778608245849,0.0074330447241663,-0.0028105017263442,-0.9817929863929749,0.1897881478071212,-0.0561709796295203,0.0647977513686201,2.7537632474112463,-0.0688249245285987,0.0051131327636539,-0.0213630031794309,-0.0038760849949903,0.0965387546829879,-9.003559618592263,10.0,500.0,25,2019-10-24,9:45,R1,2019-10-24 09:45:15.900,535.790089098955
277,16.0,3.0999999046325684,154.0,-79.78278968159924,40.45904195990253,283.46739939880365,0.0047631226480007,-0.0002010839962167,-0.981597363948822,0.1909029483795166,-0.0397652695846356,0.0505910498525179,2.601816194262077,-0.0492178834974765,-0.0417061522603035,-0.0248313751071691,-0.0617896656878292,-0.113507520686835,-8.854290727972984,10.0,500.0,25,2019-10-24,9:45,R1,2019-10-24 09:45:16.000,507.1585486140066
277,16.2,3.0,155.0,-79.78278961787497,40.45904174970609,283.7584264678955,0.0026458059437572,-0.0003739913227036,-0.9814473986625672,0.1917129755020141,-0.022206062017342,0.0505214842521188,2.5234577224283217,-0.009550510905683,0.0334487110376358,0.0260925665497779,-0.0600434678234159,-0.1056814610771834,-8.747272063493728,10.0,500.0,25,2019-10-24,9:45,R1,2019-10-24 09:45:16.200,526.7966790596838
277,16.3,2.900000095367432,153.0,-79.78278959176772,40.459041685525214,284.24161128234863,0.0060613811947405,-0.0047972905449569,-0.9813072681427002,0.1922921687364578,-0.0005265440556365,0.0419715105478896,2.319833097470177,0.0346961915493011,0.0302390102297067,0.0255212355405092,-0.0083309027273207,-0.1447438491974026,-8.869482378959656,10.0,500.0,25,2019-10-24,9:45,R1,2019-10-24 09:45:16.300,561.5122049372585
277,16.5,2.799999952316284,158.0,-79.7827896521211,40.4590414976079,284.7423074645996,0.010263686068356,-0.0064273816533386,-0.9814859628677368,0.1911509931087494,-0.0066513671839329,0.0464723121498863,2.2721037791048264,-0.0160430017858743,0.061671145260334,0.0344142764806747,0.0487662719003856,-0.1452538086287677,-9.179939709305764,10.0,500.0,25,2019-10-24,9:45,R1,2019-10-24 09:45:16.500,580.115329993976
277,16.9,2.700000047683716,169.0,-79.78278969819597,40.45904124899172,285.4558132095337,0.0056674652732908,-0.002492650412023,-0.9822203516960144,0.1876300126314163,0.0075865674338809,0.0229000746675642,2.279878924594601,-0.0465967021882534,-0.0640952140092849,0.0372498966753482,-0.1171825322695076,-0.1035983722284436,-9.785477362275124,10.0,500.0,25,2019-10-24,9:45,R1,2019-10-24 09:45:16.900,603.2343645381407
277,17.2,2.5999999046325684,174.0,-79.78278906929017,40.45904090239917,286.38607100677484,0.0073555689305067,-1.8292193999513984e-06,-0.9822550415992736,0.187406301498413,-0.0446249222273362,0.0404291076332668,2.3290218027997964,0.0323203429579734,0.0245380289852619,0.0011598462006077,-0.0520957998326048,-0.0720877042366191,-9.81793934941292,10.0,500.0,25,2019-10-24,9:45,R1,2019-10-24 09:45:17.200,597.1991362907793
277,17.41,2.5999999046325684,176.0,-79.782789038948,40.459040879537646,286.6194284362793,0.0074455370195209,-0.0004237343964632,-0.9821732044219972,0.1878305822610855,-0.0523806651625098,0.0379893458954482,2.3377262333192705,-0.0379367619752883,-0.0423302501440048,0.0002593390818219,0.0021305894816759,-0.167067796792835,-9.873682025671004,10.0,500.0,25,2019-10-24,9:45,R1,2019-10-24 09:45:17.410,620.3038620044937
277,17.5,2.5,181.0,-79.78278967193056,40.4590411512161,287.02635554504394,0.0049981642514467,-0.0012834465596824,-0.9820213913917542,0.1886994242668152,-0.0165168580818963,-0.003382337710284,2.354269097938886,-0.0456200651824474,-0.0072428863495588,-0.0802439525723457,0.0056686928495764,-0.0166098017804324,-9.994048129320143,10.0,500.0,25,2019-10-24,9:45,R1,2019-10-24 09:45:17.500,595.8701687060675
277,17.7,2.5999999046325684,183.0,-79.78278994215593,40.45904135284732,287.4418600006104,0.0038225161843001,0.0007458736654371,-0.9817360639572144,0.1902082711458206,-0.0173029684463437,-0.0337145075980614,2.3638250717420144,-0.0772931650280952,0.0836319625377655,-0.0608738586306572,-0.0104865278850775,-0.1364034904260188,-9.986592929363251,10.0,500.0,25,2019-10-24,9:45,R1,2019-10-24 09:45:17.700,619.5160576757042
277,17.8,2.700000047683716,187.0,-79.7827899714643,40.45904138198848,287.67902926635736,0.0048907124437391,-0.0006857419502921,-0.9816716909408568,0.1905161887407302,-0.0029264330878913,-0.042054797812878,2.377220529254773,0.0665173903107643,-0.0229077450931072,-0.0175663214176893,-0.0376284658326767,-0.13478449691087,-9.959976403713226,10.0,500.0,25,2019-10-24,9:45,R1,2019-10-24 09:45:17.800,580.1939503330793
277,18.0,2.700000047683716,189.0,-79.78279022772487,40.459041457544025,287.8588426513672,0.0071474178694188,-0.0013410574756562,-0.9815900325775146,0.1908620446920395,-0.0114813344535978,-0.0387615715368684,2.3503034193684704,0.0393968746066093,0.034714862704277,-0.0091848596930503,0.0783696832135319,-0.0222363033145666,-9.922268879413606,10.0,500.0,25,2019-10-24,9:45,R1,2019-10-24 09:45:18.000,621.544318001157
277,18.1,2.700000047683716,191.0,-79.78279048851212,40.45904172865134,288.2867372436524,0.010178493335843,0.0042176572605967,-0.9815781116485596,0.1907434314489364,-0.0241426780601796,-0.0658355017186953,2.365838072607596,-0.0166560895740985,0.0298445597290992,0.0192341040819883,-0.0145684200245887,0.034318651696667,-10.064733949899674,10.0,500.0,25,2019-10-24,9:45,R1,2019-10-24 09:45:18.100,651.2606738945761
277,18.31,2.799999952316284,192.0,-79.782790553916,40.45904177577157,288.524661819458,0.0116603402420878,0.0066181961447,-0.9815717935562134,0.1906231939792633,-0.0102332514754877,-0.0831815175261791,2.3920432115527843,0.0757936239242553,-0.0136596765369176,0.0363420881330966,-0.0837814822979271,-0.208535756841302,-10.058504326343538,10.0,500.0,25,2019-10-24,9:45,R1,2019-10-24 09:45:18.310,639.5246283486485
277,18.4,2.900000095367432,194.0,-79.78279084299542,40.459041926908434,288.95786456298833,0.0094610918313264,0.0073318216018378,-0.9816851019859314,0.1901343613862992,-0.0163874206809153,-0.0965358138517374,2.395084728016029,-0.0967940166592598,0.0148126166313886,0.0647010281682014,-0.0016875429823994,-0.2209714689105749,-10.032704071998596,10.0,500.0,25,2019-10-24,9:45,R1,2019-10-24 09:45:18.400,613.5369484640835
277,18.6,2.900000095367432,194.0,-79.78279092347712,40.45904197065936,289.19860820007324,0.005939389578998,0.0053080525249242,-0.9817699193954468,0.1899065673351288,-0.011372712736132,-0.0980574258453284,2.4169582738606348,-0.0939506366848945,0.0212681330740451,0.0517002753913402,-0.0122338871983811,-0.1859861889481544,-10.075414474010469,10.0,500.0,25,2019-10-24,9:45,R1,2019-10-24 09:45:18.600,648.4313742440971
277,18.71,3.0,197.0,-79.78279134045225,40.45904214582145,289.6448343200684,0.0079067684710025,0.0041928472928702,-0.9817835688591005,0.1897919625043869,0.0235276791986149,-0.1058963094786921,2.4574439720690515,0.0489730350673198,-0.0295974053442478,0.0098818950355052,0.0109444665117189,-0.0941883932612836,-10.210984507799148,10.0,500.0,25,2019-10-24,9:45,R1,2019-10-24 09:45:18.710,654.0520216735167
277,18.91,3.0999999046325684,195.0,-79.78279143526902,40.4590422042004,289.89293269348144,0.0095335403457283,0.0063165859319269,-0.9819037318229676,0.1890354454517364,-0.0058217005642116,-0.1088762176866534,2.5052716491673963,-0.0153065100312232,0.0214586369693279,0.076534979045391,-0.0825513103511184,-0.1009073739498853,-10.329606971740724,10.0,500.0,25,2019-10-24,9:45,R1,2019-10-24 09:45:18.910,645.4749796221295
277,19.3,3.5999999046325684,195.0,-79.78279209233213,40.45904291233449,291.0974271697998,0.0149384168908,0.01246939599514,-0.9814862608909608,0.190541535615921,-0.040194793913803,-0.1611354029107078,2.598190895543622,-0.0090438434854149,-0.1629176139831543,-0.1662902235984802,-0.0984309867583215,-0.3113165421411395,-9.87537420988083,10.0,500.0,25,2019-10-24,9:45,R1,2019-10-24 09:45:19.300,584.445183291951
277,19.5,3.5999999046325684,194.0,-79.78279235216633,40.459043325020986,291.56938151550287,0.0136513523757457,0.0213323440402746,-0.9810693860054016,0.1919935196638108,-0.0533232673805417,-0.2323084252271798,2.5146561765822644,-0.0437872484326362,-0.0699756368994712,0.0261865761131048,-0.0936474984046071,-0.1261689535528421,-9.723462377786635,10.0,500.0,25,2019-10-24,9:45,R1,2019-10-24 09:45:19.500,583.8280771008067
277,19.6,3.900000095367432,195.0,-79.78279255864524,40.45904343541872,291.81164530944824,0.0104604037478566,0.0211712140589952,-0.9810609221458436,0.1922549903392792,-0.0399554450531594,-0.2405569674505404,2.4853419193708848,-0.0684342309832573,0.0558443814516067,-0.0356086827814579,-0.2640677323378623,-0.2230674764513969,-9.508143339157105,10.0,500.0,25,2019-10-24,9:45,R1,2019-10-24 09:45:19.600,543.9443738485171
277,19.8,4.0,195.0,-79.78279278124853,40.45904363938326,292.29719142150884,0.0078760394826531,0.018690513446927,-0.9811915159225464,0.1919686645269394,-0.0204956283367617,-0.2233556371619822,2.3514851787101407,-0.0369024947285652,0.0159344151616096,0.0559984780848026,-0.2597176962532103,-0.1408136249240487,-9.261493749618529,10.0,500.0,25,2019-10-24,9:45,R1,2019-10-24 09:45:19.800,520.660633738913
277,19.9,4.099999904632568,193.0,-79.7827928755908,40.45904386033144,292.54725054931635,0.0089314505457878,0.0178542342036962,-0.9811460375785828,0.1922341436147689,-0.0254383949055943,-0.212423738930766,2.3036170207284314,0.0522827357053756,-0.0293759945780038,0.037989143282175,-0.3092412556707859,-0.368020098656416,-8.891784244179727,10.0,500.0,25,2019-10-24,9:45,R1,2019-10-24 09:45:19.900,516.0144968913482
277,20.11,4.199999809265137,192.0,-79.78279308465748,40.459044005738285,292.9964254302978,0.0124365044757723,0.0205679554492235,-0.9809908270835876,0.1925602406263351,-0.0532680240118852,-0.1901447712128342,2.111927925845152,0.0363761261105537,-0.0760592371225357,-0.0846552997827529,-0.2187014884315432,-0.4568423376604915,-8.847238401174545,10.0,500.0,25,2019-10-24,9:45,R1,2019-10-24 09:45:20.110,477.3460710371583
277,20.2,4.300000190734863,192.0,-79.78279314135266,40.459044105507736,293.2017343444824,0.0140297655016183,0.0221914425492286,-0.9808080196380616,0.1932006031274795,-0.0704159811005552,-0.1857331625866626,1.9804070656586408,-0.0487133786082267,-0.0144576011225581,-0.0292650088667869,-0.164759626686573,-0.3994573247060179,-8.522341371774674,10.0,500.0,25,2019-10-24,9:45,R1,2019-10-24 09:45:20.200,462.2790817546047
277,20.4,4.400000095367432,191.0,-79.78279319143411,40.45904420998115,293.58280162048334,0.0107911750674247,0.0227498970925807,-0.980472207069397,0.1950394660234452,-0.0823403261671654,-0.1641076713703047,1.7342829427416313,-0.0676550716161727,-0.0047110104933381,-0.0262136850506067,-0.2787615842744708,-0.3203058322146535,-8.369676418304444,10.0,500.0,25,2019-10-24,9:45,R1,2019-10-24 09:45:20.400,472.9582810678876
277,20.5,4.400000095367432,192.0,-79.78279320216016,40.45904429866446,293.74949053955083,0.0103475507348775,0.0209811981767416,-0.9804284572601318,0.1954811066389084,-0.0781073967707745,-0.1540103279833909,1.5884522549839744,-0.0418913625180721,-0.0253599807620048,0.0508864298462867,-0.3663471737131477,-0.3978270478919149,-8.314086939096452,10.0,500.0,25,2019-10-24,9:45,R1,2019-10-24 09:45:20.500,435.6416710401609
277,20.7,4.400000095367432,190.0,-79.7827931798799,40.45904429597846,293.9137208862305,0.0111236497759819,0.0190972816199064,-0.9804808497428894,0.1953687369823456,-0.0782683030405746,-0.1246091643006486,1.4582335092830525,0.0426703877747058,0.0547718591988086,-0.0049258642829954,-0.3067632056772709,-0.3075036093592644,-8.208231870532035,10.0,500.0,25,2019-10-24,9:45,R1,2019-10-24 09:45:20.700,112.30208516050696
277,20.8,4.400000095367432,191.0,-79.78279310975532,40.459044489176776,294.158658782959,0.0120186917483806,0.0097585711628198,-0.978097677230835,0.2075702548027038,-0.1412808017839837,-0.134494439783411,0.8990886629157652,-0.0555740110576152,0.141942948102951,-0.5762307047843933,-0.3890695633739233,-0.6018983459472657,-6.745937376022339,10.0,500.0,25,2019-10-24,9:45,R1,2019-10-24 09:45:20.800,382.37553380067766
277,21.0,4.5,193.0,-79.78279298527704,40.45904450218697,294.26324252319336,0.0103000551462173,0.0031817909330129,-0.9696196913719176,0.2443797737360001,-0.1638141769185589,-0.1133176066878456,0.6327109499882426,-0.086542896926403,0.004577949643135,-0.9060776829719543,-0.2409933951124549,-0.5060096371918917,-6.732911533713341,10.0,500.0,25,2019-10-24,9:45,R1,2019-10-24 09:45:21.000,421.89319210311805
277,21.1,4.5,194.0,-79.78279287815188,40.45904465249908,294.3137624664306,0.0137577699497342,0.0070522176101803,-0.95614892244339,0.292472630739212,-0.1934674595416219,-0.1127906907173913,0.3809876804308598,0.0150683345273137,-0.1725364178419113,-1.0541493892669678,-0.2189488073810935,-0.6213456004858017,-7.182158374786378,10.0,500.0,25,2019-10-24,9:45,R1,2019-10-24 09:45:21.100,423.9471672391083
277,21.21,4.5,188.0,-79.78279255996672,40.45904482204442,294.39190081787115,0.0161192622035741,0.0162722170352935,-0.9120119214057922,0.4095236361026764,-0.2526975597746971,-0.0964273399028181,0.0361612700065767,-0.0906001925468444,-0.0374898202717304,-1.4385052919387815,-0.2622285089269281,-0.628663317784667,-7.901370577812194,10.0,500.0,25,2019-10-24,9:45,R1,2019-10-24 09:45:21.210,407.2517623650565
277,21.4,4.5,193.0,-79.78279213570046,40.45904485231011,294.44965724182134,0.0229656472802162,0.0187703780829906,-0.841948390007019,0.5387423038482666,-0.2509021318313633,-0.0246710888150291,-0.2553126243658962,0.1330862641334533,-0.0434780828654766,-1.567156434059143,-0.2002197371050715,-0.3302070686593652,-8.13724316418171,10.0,500.0,25,2019-10-24,9:45,R1,2019-10-24 09:45:21.400,427.1285867310071
277,21.5,4.5,196.0,-79.7827919856379,40.45904506215013,294.41810778808593,0.0274811703711748,0.0199339315295219,-0.7976747751235962,0.6021314859390259,-0.2323239219659235,0.0243485184677825,-0.3999208169275161,0.0966134816408157,-0.0610017329454422,-1.6686047315597534,-0.0954682482685893,-0.4204299350827933,-8.326057943701745,10.0,500.0,25,2019-10-24,9:45,R1,2019-10-24 09:45:21.500,449.43853014676273
277,21.7,4.5,183.0,-79.78279176946384,40.45904497538661,294.41885546875,0.031072374433279,0.0208628103137016,-0.748341977596283,0.6622564792633057,-0.1828583999420804,0.0769038948770694,-0.4795488445234701,0.1019507050514221,-0.1534449756145477,-1.4953489303588867,-0.152508028820157,-0.5941195026040077,-8.452505151629449,10.0,500.0,25,2019-10-24,9:45,R1,2019-10-24 09:45:21.700,542.8214563136861
277,21.8,4.400000095367432,176.0,-79.78279145395466,40.45904529003551,294.31321124267583,0.0366965867578983,0.0132732465863227,-0.6410693526268005,0.7664902210235596,-0.1108674493904351,0.1256053744463051,-0.5771108000222922,-0.0189706180244684,0.0956765264272689,-1.26098895072937,0.188082927390933,-0.4288512777909637,-9.3855810213089,10.0,500.0,25,2019-10-24,9:45,R1,2019-10-24 09:45:21.800,571.9048718044069
277,22.0,4.400000095367432,187.0,-79.78279124679393,40.4590452015433,294.25940875244135,0.0409033820033073,0.010391229763627,-0.5900596976280212,0.8062559366226196,-0.0484020150540927,0.1533445805730386,-0.5732504576949461,0.0150681659579277,0.0588844269514083,-1.0630697011947632,0.5363387793302536,-0.4075863066315651,-9.554930419921876,10.0,500.0,25,2019-10-24,9:45,R1,2019-10-24 09:45:22.000,549.121894712498
277,22.2,4.400000095367432,193.0,-79.78279067280795,40.45904547106152,294.0512178344726,0.0509176291525363,0.0068256054073572,-0.4874903559684754,0.8716157674789429,0.1071479938253226,0.1766954281196293,-0.5181806526970152,0.0626007094979286,-0.1042217761278152,-0.5191618204116821,0.7005040365457536,-0.6548982395231724,-9.910242326259612,10.0,500.0,25,2019-10-24,9:45,R1,2019-10-24 09:45:22.200,587.7901004344315
277,22.3,4.5,192.0,-79.78279040699691,40.45904547070886,294.0032403869629,0.056637767702341,0.0145495263859629,-0.471995621919632,0.8796594142913818,0.1884792913869956,0.1636762838263633,-0.4544318547418854,0.3091278076171875,0.030123833566904,-0.2557485401630401,0.9898118416965008,-0.183985198661685,-10.28916645884514,10.0,500.0,25,2019-10-24,9:45,R1,2019-10-24 09:45:22.300,596.548706869071
277,22.5,4.599999904632568,192.0,-79.7827901963409,40.45904554476574,293.9314821166992,0.0702217295765876,0.031908992677927,-0.4636517465114594,0.8826538920402527,0.2567681854844104,0.163218943050374,-0.4025360889985555,0.3649129569530487,-0.1871805489063263,0.1602712720632553,0.9538179901242256,-0.7076281379163265,-10.164220815896988,10.0,500.0,25,2019-10-24,9:45,R1,2019-10-24 09:45:22.500,582.0877351137823
277,22.6,4.400000095367432,203.0,-79.78278982980645,40.45904546285325,293.89258364868164,0.0637882798910141,0.0437150932848453,-0.4632922410964966,0.8828251957893372,0.322882842095531,0.2037842825527432,-0.3589339276915471,-0.0606589019298553,-0.4938440322875977,-0.0205537192523479,1.3351377269625664,-0.7940458922088146,-9.987439606189726,10.0,500.0,25,2019-10-24,9:45,R1,2019-10-24 09:45:22.600,571.8471052468958
277,23.2,4.199999809265137,201.0,-79.78278484834652,40.45904581716373,293.628421585083,-0.0558805093169212,0.0572571195662021,-0.4992761015892029,0.862741231918335,0.3174978258443083,1.250544879935573,0.2932694601836355,0.0048669762909412,-0.1471981555223465,-0.0084019098430871,0.7729474570602181,-0.4931278556585312,-10.82958717942238,10.0,500.0,25,2019-10-24,9:45,R1,2019-10-24 09:45:23.200,658.6553392163769
277,23.3,4.099999904632568,202.0,-79.78278324620912,40.45904619866516,293.64228419494634,-0.0584951415657997,0.0599989332258701,-0.5026771426200867,0.8604035973548889,0.2825861676517852,1.4600932261182415,0.4263968504443981,-0.0324036553502082,-0.0622892007231712,-0.007952963002026,0.5986682343855501,-0.5156927724927665,-10.803782247304916,10.0,500.0,25,2019-10-24,9:45,R1,2019-10-24 09:45:23.300,638.0176363651264
277,23.71,3.900000095367432,197.0,-79.78277750858491,40.45904785983785,293.52516345214843,-0.079232208430767,0.0555585287511348,-0.5047104358673096,0.8578479290008545,0.2351767431029409,2.057949829871045,0.7158324353033589,0.0780526995658874,-0.1247973516583442,-0.2022309452295304,0.4238793537765741,-0.3116994251310825,-10.775894536972046,10.0,500.0,25,2019-10-24,9:45,R1,2019-10-24 09:45:23.710,639.9988046974614
277,23.8,3.700000047683716,192.0,-79.78277503773872,40.45904867519236,293.56132487487787,-0.0832636430859565,0.0568060576915741,-0.5026562213897705,0.8585901856422424,0.2038355051559009,2.2705274295302136,0.8471235120962988,0.0462731346487998,0.0353891775012016,-0.1779611557722091,0.3581059983372689,-0.2293116084113717,-10.731315364837648,10.0,500.0,25,2019-10-24,9:45,R1,2019-10-24 09:45:23.800,627.7514239265292
277,24.0,3.5,188.0,-79.7827695086285,40.45905042214759,293.55320529174804,-0.0836708918213844,0.0645990595221519,-0.4970616400241852,0.8612525463104248,0.2027829501252402,2.6838343862053966,1.025003949132687,0.1160219758749008,0.0971295312047004,-0.1530959606170654,0.2298491502553225,-0.3151205944642424,-10.538029804229735,10.0,500.0,25,2019-10-24,9:45,R1,2019-10-24 09:45:24.000,609.2437876899021
277,24.1,3.400000095367432,179.0,-79.78276305931102,40.45905241774692,293.55825595092773,-0.0849887654185295,0.0724263861775398,-0.4887675940990448,0.8652384877204895,0.2573959009692633,3.1114537488986564,1.1432707411242091,0.0672086402773857,-0.053088117390871,-0.1658909022808075,0.2679372186586261,-0.4957567638158799,-10.425825244188308,10.0,500.0,25,2019-10-24,9:45,R1,2019-10-24 09:45:24.100,633.0805076961842
277,24.3,3.299999952316284,173.0,-79.78275943808691,40.45905376267832,293.60450915527343,-0.088260106742382,0.074714757502079,-0.4837993979454041,0.8675057291984558,0.2605706517169227,3.3370343662690987,1.2445185946482775,-0.1140282303094864,-0.0342291221022605,-0.1656318306922912,0.3067518766969442,-0.303811768759042,-10.375934461355213,10.0,500.0,25,2019-10-24,9:45,R1,2019-10-24 09:45:24.300,653.015772035782
277,24.4,3.2000000476837163,165.0,-79.78275556942205,40.45905522444141,293.65361003112787,-0.0926191881299018,0.0741931423544883,-0.4792641401290894,0.8696108460426331,0.2937703495290807,3.5557827231959926,1.3591088582122772,-0.1268891245126724,-0.1223076283931732,0.0413557738065719,0.1422016168758273,-0.4564256139099598,-10.507285144329073,10.0,500.0,25,2019-10-24,9:45,R1,2019-10-24 09:45:24.400,641.5733175723872
277,24.6,3.2000000476837163,161.0,-79.78274718071106,40.45905776120117,293.6579320831299,-0.0963972583413124,0.0671825781464576,-0.4733670949935913,0.8729935884475708,0.3985891411359971,3.9690205489015256,1.519261956458252,-0.1344945579767227,0.0485600009560585,-0.0620094984769821,0.0602892427425831,-0.3562383611127734,-10.45767035007477,10.0,500.0,25,2019-10-24,9:45,R1,2019-10-24 09:45:24.600,610.5460500542576
277,24.7,3.2000000476837163,150.0,-79.78274227775286,40.45905879045815,293.6379983825684,-0.0956141576170921,0.0645121932029724,-0.4739465415477753,0.8729667067527771,0.5078858424911987,4.179683349540094,1.5264998060775574,-0.013362718746066,-0.0350261144340038,-0.0393639132380485,0.0496475615026429,-0.3648790474981069,-10.37360843896866,10.0,500.0,25,2019-10-24,9:45,R1,2019-10-24 09:45:24.700,592.461347785491
277,24.9,3.299999952316284,146.0,-79.78273241484544,40.45906256786939,293.7408273620605,-0.0963449776172638,0.0682156383991241,-0.4769577980041504,0.8709625005722046,0.4769234598562725,4.634785662926256,1.6252397012434083,0.1135498434305191,-0.0982979834079742,0.0531892627477645,-0.0024731712229549,-0.392427911683917,-10.233242518901823,10.0,500.0,25,2019-10-24,9:45,R1,2019-10-24 09:45:24.900,604.3292419959325
277,25.0,3.299999952316284,139.0,-79.78272680699206,40.45906399083647,293.7486055297852,-0.0969241708517074,0.0723438933491706,-0.4813087284564972,0.8681670427322388,0.4974580367538114,4.822156520090153,1.6684473685852168,0.039580974727869,-0.0323500260710716,0.0652167350053787,-0.0737652201578021,-0.4512412532418967,-10.087860857248309,10.0,500.0,25,2019-10-24,9:45,R1,2019-10-24 09:45:25.000,605.3576040628832
277,25.11,3.400000095367432,134.0,-79.78271484586828,40.45906780672436,293.838626663208,-0.0998946502804756,0.0750934779644012,-0.4877800941467285,0.863974928855896,0.464224890326048,5.240581083988542,1.8166012055515035,-0.0389168635010719,-0.0662018507719039,0.0986990332603454,-0.2619245816208422,-0.5712601784616709,-10.010476466417312,10.0,500.0,25,2019-10-24,9:45,R1,2019-10-24 09:45:25.110,615.084076971285
277,25.3,3.5,125.0,-79.78270888386956,40.45907008320717,293.8867395324707,-0.1025364696979522,0.0746185407042503,-0.4901423454284668,0.8623681664466858,0.4046183718662874,5.450130645138001,1.8875365154721733,-0.0789005309343338,-0.0478343032300472,0.0531160607933998,-0.3377924422547221,-0.3482730646803975,-9.958021094799044,10.0,500.0,25,2019-10-24,9:45,R1,2019-10-24 09:45:25.300,598.201695517404
277,25.51,3.5999999046325684,121.0,-79.78269532200541,40.45907443233599,294.009488861084,-0.1019936203956604,0.0754994973540306,-0.4953860938549042,0.8593543171882629,0.4333621792942583,5.868567045112562,2.00222235833927,0.0362740270793438,-0.0141598554328084,0.0378904454410076,-0.3861965339630842,-0.0786895259097218,-9.804552149176596,10.0,500.0,25,2019-10-24,9:45,R1,2019-10-24 09:45:25.510,607.8271955427625
277,25.6,3.900000095367432,113.0,-79.78268865999127,40.45907694073504,294.054166595459,-0.1004448980093002,0.0771607980132103,-0.4961089789867401,0.8589720129966736,0.3820806132576083,6.074641937110902,2.037237128640334,-0.048013262450695,-0.0335786864161491,0.1368853747844696,-0.3884021402522922,-0.5376735524833203,-9.853581637144089,10.0,500.0,25,2019-10-24,9:45,R1,2019-10-24 09:45:25.600,607.0141086238873
277,25.8,4.099999904632568,110.0,-79.78267378006211,40.45908186713916,294.1840570373535,-0.1059806942939758,0.071102350950241,-0.4965091943740845,0.8585984110832214,0.3955796147177053,6.467943797299718,2.168319643414735,-0.1588868647813797,-0.0509173199534416,-0.1287411153316497,-0.562696017511189,-0.1483827542234212,-9.94801066160202,10.0,500.0,25,2019-10-24,9:45,R1,2019-10-24 09:45:25.800,548.6458164080797
277,25.9,4.5,104.0,-79.78265818619795,40.459087266286105,294.29627398681635,-0.1158855333924293,0.0681654810905456,-0.4937607944011688,0.8591417074203491,0.4785664635714871,6.829335856546825,2.288548100283692,-0.0383167900145053,-0.0498466528952121,-0.1666599363088607,-0.5350665348395706,-0.1475482286419719,-9.703962498307227,10.0,500.0,25,2019-10-24,9:45,R1,2019-10-24 09:45:25.900,532.6144939706392
277,26.1,4.699999809265137,100.0,-79.78265049480956,40.45909018471408,294.3384530944824,-0.1180021986365318,0.0713288411498069,-0.4918940961360931,0.8596674203872681,0.466958959078654,6.991782205812862,2.3348802710624605,0.0758023634552955,-0.0798043757677078,-0.0469355583190918,-0.7196581263095141,-0.3402387711033225,-9.422084019184114,10.0,500.0,25,2019-10-24,9:45,R1,2019-10-24 09:45:26.100,549.1063677714554
277,26.2,5.099999904632568,94.0,-79.78264168577337,40.459093090650384,294.41373614501947,-0.1178049892187118,0.0754199028015136,-0.4916135966777802,0.8595055937767029,0.5110018090479709,7.167352936168858,2.3921577512880203,0.0929300040006637,-0.0379975289106369,-0.0368838310241699,-0.5221282180398703,-0.4361338021606207,-9.246631881594658,10.0,500.0,25,2019-10-24,9:45,R1,2019-10-24 09:45:26.200,531.0714300613437
277,26.4,5.300000190734863,92.0,-79.78262539062328,40.459099334810645,294.4728010101318,-0.1048734858632087,0.0759081244468689,-0.4951067268848419,0.8591326475143433,0.4582279342386096,7.524825773296001,2.3731300937087267,-0.0398809053003788,0.1440046727657318,0.112533189356327,-0.8712544280290604,-0.2867625121772289,-9.375114505290986,10.0,500.0,25,2019-10-24,9:45,R1,2019-10-24 09:45:26.400,505.912378835259
277,26.5,5.599999904632568,87.0,-79.78261606585433,40.459102470664256,294.5374906463623,-0.0993688702583313,0.0723375603556633,-0.4990283250808716,0.8578251600265503,0.4613668412356477,7.737982594550034,2.280532853567642,-0.0163142196834087,-0.0764869153499603,0.0504489839076995,-0.8786284978687764,-0.3512923475727439,-9.376253542900086,10.0,500.0,25,2019-10-24,9:45,R1,2019-10-24 09:45:26.500,515.354134101777
277,26.6,5.9000000953674325,87.0,-79.78259772910219,40.45910904380353,294.6097219390868,-0.1029647290706634,0.0694353356957435,-0.5057385563850403,0.8537010550498962,0.3748967530330369,8.104826162845725,2.1427810955093767,0.0262580886483192,-0.0763281509280204,0.1632298827171325,-0.6816843344271183,-0.3977324691787362,-9.476744960546494,10.0,500.0,25,2019-10-24,9:45,R1,2019-10-24 09:45:26.600,503.12782348753535
277,26.8,6.300000190734862,83.0,-79.78257971496272,40.45911594492991,294.6249483032226,-0.1106951832771301,0.0729396566748619,-0.5113410353660583,0.8490918278694153,0.2203571890672698,8.403285249174234,2.2411137651887016,-0.0053526670671999,-0.1381814926862716,0.2468646168708801,-0.9449204282462598,-0.4284512186050416,-9.420239807367324,10.0,500.0,25,2019-10-24,9:45,R1,2019-10-24 09:45:26.800,500.6111243476914
277,27.0,6.5,81.0,-79.78256957222173,40.45911942555642,294.6663968963623,-0.1120977327227592,0.076282225549221,-0.5131739377975464,0.8475067615509033,0.1802994408132514,8.542105328419444,2.334939606234846,0.0321617536246776,-0.0143713764846324,0.053503893315792,-0.9519858381897212,-0.222244773209095,-9.365894030928612,10.0,500.0,25,2019-10-24,9:45,R1,2019-10-24 09:45:27.000,445.91837173089874
277,27.1,6.9000000953674325,79.0,-79.78256015370361,40.459123028712185,294.664123336792,-0.1115204617381096,0.0789800658822059,-0.51376873254776,0.8469752073287964,0.133637458315852,8.690386396875594,2.3654606888842205,-0.0317594110965728,-0.0867977067828178,0.1202255710959434,-0.99766772210598,-0.2707498024776578,-9.309327481985092,10.0,500.0,25,2019-10-24,9:45,R1,2019-10-24 09:45:27.100,455.3884534372192
277,27.3,7.099999904632568,77.0,-79.78253981571399,40.45913029335541,294.6885812683105,-0.1141367256641388,0.0797481387853622,-0.5117860436439514,0.8477547764778137,0.1426130534887882,9.008040336441448,2.3841853938486084,0.0173198897391557,-0.0110865691676735,0.0320371612906456,-1.065109434351325,-0.4092225402966142,-9.218385736942292,10.0,500.0,25,2019-10-24,9:45,R1,2019-10-24 09:45:27.300,483.0653118270458
277,27.4,7.400000095367432,75.0,-79.78252991126989,40.45913407293626,294.6704900665283,-0.1128312423825264,0.0786161422729492,-0.509960949420929,0.8491339087486267,0.1783393955833677,9.147175933479437,2.4193855675612257,0.0442221835255622,0.08015026897192,-0.0784518718719482,-1.4236917614936833,-0.1302906193211674,-9.479304871559144,10.0,500.0,25,2019-10-24,9:45,R1,2019-10-24 09:45:27.400,490.2972693328302
277,27.61,7.5,74.0,-79.7825085803128,40.45914156990153,294.68307666015625,-0.0926291495561599,0.0714049562811851,-0.5096440315246582,0.8523991107940674,0.2742604392401779,9.446785687639697,2.279846728024425,-0.0228169150650501,0.2508931756019592,0.1290464550256729,-1.3568064849078656,-0.2959765363298357,-9.46748414039612,10.0,500.0,25,2019-10-24,9:45,R1,2019-10-24 09:45:27.610,474.1142536284679
277,27.7,7.900000095367432,74.0,-79.78248657903463,40.459149120097045,294.69805316162115,-0.0770863965153694,0.0650664940476417,-0.5098244547843933,0.8543437123298645,0.3655979823391276,9.742831335344633,1.9028258065351824,0.0097233708947896,0.1028377190232276,-0.0872493535280227,-1.147499626502395,-0.43206892747432,-9.439302899837497,10.0,500.0,25,2019-10-24,9:45,R1,2019-10-24 09:45:27.700,457.29810800294223
277,27.9,8.0,75.0,-79.78246429770081,40.45915670653519,294.69774226379394,-0.072211280465126,0.0576765574514865,-0.5081341266632079,0.8563052415847778,0.4828429352058654,9.932580898812637,1.7007545219281326,-0.2416595667600632,-0.0107784587889909,-0.0517335757613182,-1.3563351993262769,-0.2457358159124851,-9.496426103711126,10.0,500.0,25,2019-10-24,9:45,R1,2019-10-24 09:45:27.900,512.4806222760525
277,28.0,8.300000190734862,74.0,-79.78245354281314,40.45916064233717,294.6775606079101,-0.0754709988832473,0.0551042594015598,-0.5067741274833679,0.8569992184638977,0.5137007633155544,9.983136131676002,1.6542409319498492,0.011069537140429,-0.031666200608015,0.2703495323657989,-1.439110722988844,-0.3917789803817868,-9.675056787729265,10.0,500.0,25,2019-10-24,9:45,R1,2019-10-24 09:45:28.000,489.1428643029576
277,28.2,8.5,73.0,-79.78244172583233,40.459164493011954,294.6654088897705,-0.0815164968371391,0.0566246584057807,-0.5057423114776611,0.8569560050964355,0.5964979712273955,10.059415750318788,1.7285594394809731,0.0507492534816265,-0.1879525929689408,-0.1516843736171722,-1.2550652249157428,-0.1728354172222316,-9.78298294007778,10.0,500.0,25,2019-10-24,9:45,R1,2019-10-24 09:45:28.200,492.8309588935954
277,28.3,8.699999809265138,73.0,-79.78241984227469,40.45917242888216,294.6288812561035,-0.0874105915427208,0.0621268078684806,-0.5036249756813049,0.8572407364845276,0.636886071943911,10.124608101092702,1.9572873302109008,0.0592365562915802,-0.0242969263345003,-0.0916481092572212,-1.4307069584727288,-0.0326827926188707,-9.602238487601278,10.0,500.0,25,2019-10-24,9:45,R1,2019-10-24 09:45:28.300,473.1556764330016
277,28.8,9.100000381469728,72.0,-79.78236284661176,40.45919281361824,294.43443087768554,-0.0629536136984825,0.0465438961982727,-0.5032195448875427,0.8606047630310059,0.6902885520138801,10.42831191888988,1.5302451721575614,-0.1261524558067321,0.1067777872085571,-0.1009866595268249,-1.5050738936662675,-0.2775140077248216,-9.416090623140336,10.0,500.0,25,2019-10-24,9:45,R1,2019-10-24 09:45:28.800,508.60909353166073
277,28.9,9.100000381469728,76.0,-79.78235102140063,40.45919693357908,294.34869174194336,-0.0567513741552829,0.0430668145418167,-0.5034632086753845,0.8610746264457703,0.7245383068622092,10.470876636500009,1.328965244929865,-0.0224304068833589,0.1051203235983848,0.1447694152593612,-1.5154088473320009,-0.3539951864629984,-9.425522181987764,10.0,500.0,25,2019-10-24,9:45,R1,2019-10-24 09:45:28.900,508.73528413831065
277,29.1,9.199999809265137,77.0,-79.78233976043845,40.45920101118245,294.31513575744634,-0.0482037179172039,0.0424747243523597,-0.5035709738731384,0.8615617156028748,0.7312870516493235,10.482966921385437,1.1601065858480375,-0.0339153185486793,0.1989464461803436,-0.1505406498908996,-1.2599825870990753,-0.1641993172466755,-9.466272597312928,10.0,500.0,25,2019-10-24,9:45,R1,2019-10-24 09:45:29.100,529.8642192223125
277,29.2,9.199999809265137,77.0,-79.78232808445239,40.45920532510139,294.24213008117675,-0.040017083287239,0.0426501370966434,-0.5041490197181702,0.8616341948509216,0.7181126791510984,10.496888930938908,1.0197156280156712,0.0466323569416999,0.0433756858110427,0.0817836374044418,-1.3949733079969884,-0.2523807196877897,-9.717226322293282,10.0,500.0,25,2019-10-24,9:45,R1,2019-10-24 09:45:29.200,517.103362667942
277,29.4,9.300000190734863,77.0,-79.78229380824148,40.45921759849978,294.0911920471192,-0.0282867290079593,0.0471682138741016,-0.5078312754631042,0.859699010848999,0.7018947765341718,10.462910065036173,0.7935382880002894,-0.0947860702872276,-0.0496465191245079,0.0492734313011169,-1.4879877448081966,-0.4379847382754088,-9.89764274597168,10.0,500.0,25,2019-10-24,9:45,R1,2019-10-24 09:45:29.400,539.644120160632
277,29.5,9.300000190734863,81.0,-79.78228258825098,40.4592216124295,294.0662057800293,-0.0330658815801143,0.0422880984842777,-0.5084172487258911,0.8594360947608948,0.6896919509134481,10.43314648862786,0.8279977270158115,-0.1213092133402824,0.0125588700175285,-0.0189348571002483,-1.6223455046117303,-0.2966309676691889,-10.12896093606949,10.0,500.0,25,2019-10-24,9:45,R1,2019-10-24 09:45:29.500,539.0819093612809
277,29.7,9.199999809265137,82.0,-79.7822709926342,40.45922575951219,293.9701669616698,-0.0350139364600181,0.0390256009995937,-0.5085102915763855,0.8594581484794617,0.6938072261184891,10.402343145678753,0.8763412885518191,0.1310248523950576,-0.007092127110809,0.0338030122220516,-1.5467508003115655,-0.3644024628773332,-10.261627242565156,10.0,500.0,25,2019-10-24,9:45,R1,2019-10-24 09:45:29.700,511.7396487132501
277,29.9,9.199999809265137,82.0,-79.78224869031982,40.45923366138132,293.9467542572021,-0.0323290973901748,0.0403777360916137,-0.5084906220436096,0.8595125675201416,0.7002584456210406,10.335890904074516,0.9356354134399671,0.0371612273156642,0.0138523019850254,-0.0334680527448654,-1.054375846758485,-0.1425177867896855,-10.33621666431427,10.0,500.0,25,2019-10-24,9:45,R1,2019-10-24 09:45:29.900,513.4943012670956
277,30.1,9.199999809265137,82.0,-79.78222615994024,40.459241711140926,293.8563383026123,-0.0371231213212013,0.0396155603229999,-0.5084388852119446,0.8593849539756775,0.7222457456712306,10.254966744999852,1.0327236561444908,-0.0030868393369019,0.1156202852725982,-0.1633480042219162,-1.1114589972048998,-0.1068406715802848,-10.140947728157045,10.0,500.0,25,2019-10-24,9:45,R1,2019-10-24 09:45:30.100,478.3636443005816
277,30.2,9.100000381469728,83.0,-79.78221478357368,40.459245785480725,293.7780244750976,-0.0329299084842205,0.0361684598028659,-0.5076242685317993,0.8601890802383423,0.7049850386905708,10.218450728428248,0.9991405995139596,0.033638346940279,0.1630232036113739,-0.0249563287943601,-1.4612130519747737,-0.139941503573209,-10.069424586296082,10.0,500.0,25,2019-10-24,9:45,R1,2019-10-24 09:45:30.200,492.2951093473093
277,30.3,9.0,82.0,-79.78220379461672,40.459249659884975,293.7688768310547,-0.0263205468654632,0.0297878589481115,-0.5069829821586609,0.8610389828681946,0.7387381779992478,10.182660774104416,0.8796219583651683,0.1074515879154205,0.1699482947587967,-0.0321041606366634,-1.2405155982077125,-0.2789620341360569,-9.811912039518354,10.0,500.0,25,2019-10-24,9:45,R1,2019-10-24 09:45:30.300,523.7963079297042
277,30.4,8.899999618530273,83.0,-79.78219285976394,40.45925350855869,293.7595136566161,-0.0158926416188478,0.0240956097841262,-0.5066310167312622,0.86167973279953,0.7558275831610453,10.13279511788942,0.6982915381363973,-0.0061016730032861,0.2492325156927109,-0.1574995368719101,-1.1928730697929857,-0.1598402362503111,-9.869628735780717,10.0,500.0,25,2019-10-24,9:45,R1,2019-10-24 09:45:30.400,547.2361585621911
277,30.5,8.899999618530273,83.0,-79.78217102941102,40.45926118754432,293.6576707763672,0.0162627659738063,0.0134945949539542,-0.5071266293525696,0.8616125583648682,0.7808446352999205,9.934372826626785,0.1379658678504505,0.1535634547472,0.3351644575595856,0.2468723505735397,-1.0912724353373051,-0.4018516864255071,-10.153535614013672,10.0,500.0,25,2019-10-24,9:45,R1,2019-10-24 09:45:30.500,521.1346935489856
277,30.7,8.800000190734863,90.0,-79.78215991771887,40.45926525674833,293.5780294342041,0.0271446667611598,0.0085446834564208,-0.5082520246505737,0.8607381582260132,0.7482052635732723,9.839635174453626,-0.2299364649463817,0.1402862221002578,0.1148940026760101,0.0815553069114685,-0.9310473243892192,-0.5192275605350734,-10.0417204785347,10.0,500.0,25,2019-10-24,9:45,R1,2019-10-24 09:45:30.700,511.3279012366038
277,30.91,8.699999809265138,97.0,-79.78213906299578,40.459272561301376,293.55560664367675,0.0324426591396331,0.0040160408243536,-0.5099952220916748,0.8595558404922485,0.7193252469784073,9.537896306464004,-0.5364046788288346,-0.0583549812436103,0.0544653572142124,-0.0116998562589287,-1.1074877145141364,-0.3439309954270721,-9.884343838691713,10.0,500.0,25,2019-10-24,9:45,R1,2019-10-24 09:45:30.910,483.75354303893255
277,31.01,8.5,98.0,-79.78212839259254,40.45927632641095,293.5199296875,0.0326241292059421,0.0027039148844778,-0.5106766223907471,0.8591494560241699,0.6895136310779599,9.424939297224224,-0.5829858022620786,-0.0730922222137451,-0.0032759031746536,-0.1046232208609581,-0.9608366954326628,-0.0474389722198247,-9.834109239578249,10.0,500.0,25,2019-10-24,9:45,R1,2019-10-24 09:45:31.010,454.413357910329
277,31.1,8.399999618530272,99.0,-79.78210808493814,40.45928349401501,293.4802320404052,0.0328853540122509,0.0020316881127655,-0.5109795928001404,0.8589612245559692,0.6672960526439399,9.147910921596704,-0.6463516119371818,0.0703348219394683,0.0901514217257499,0.0729250013828277,-0.9421663896739484,-0.1863642479851842,-9.6099708455801,10.0,500.0,25,2019-10-24,9:45,R1,2019-10-24 09:45:31.100,472.72490670710977
277,31.4,8.300000190734862,101.0,-79.78208866058114,40.45929023701363,293.44062403869634,0.0296907778829336,0.0055718082003295,-0.5118035674095154,0.8585712909698486,0.6464783649556458,8.873617806073533,-0.6458890381828651,-0.0572770945727825,-0.017719991505146,-0.0497967042028904,-0.7073992925137281,-0.3401145908609033,-9.63982088148594,10.0,500.0,25,2019-10-24,9:45,R1,2019-10-24 09:45:31.400,504.530388498526
277,31.5,8.199999809265138,102.0,-79.7820788388,40.45929371515384,293.4303892059326,0.0223510917276144,0.0080667193979024,-0.513008177280426,0.8580547571182251,0.6122420257705085,8.786214913403231,-0.5825091255871357,-0.1204412952065467,-0.183215707540512,0.0280389785766601,-0.8338145600259305,-0.5190644232183695,-9.647443896532057,10.0,500.0,25,2019-10-24,9:45,R1,2019-10-24 09:45:31.500,519.4550716476225
277,31.6,8.0,104.0,-79.78206943793434,40.45929698915022,293.4083364410401,0.0117124691605567,0.010441567748785,-0.5135146379470825,0.8579374551773071,0.5781182902366692,8.68343743252791,-0.4764919577238233,-0.1295126080513,-0.2540433406829834,0.004027621820569,-0.7284855946898461,-0.2883103432506323,-9.643299390077592,10.0,500.0,25,2019-10-24,9:45,R1,2019-10-24 09:45:31.600,509.06250137649846
277,31.81,7.900000095367432,104.0,-79.7820507139638,40.45930363760887,293.38582591247564,-0.0099594499915838,0.0195798836648464,-0.5130861401557922,0.8580560088157654,0.5213589422552787,8.564036650211477,-0.0950660350731309,0.0812408775091171,-0.2310322374105453,-0.197028949856758,-0.8842796856164933,-0.1742482689768076,-9.632250491380692,10.0,500.0,25,2019-10-24,9:45,R1,2019-10-24 09:45:31.810,536.0013992789935
277,31.9,7.699999809265138,98.0,-79.78204156095212,40.45930685913075,293.36260394287115,-0.0180085208266973,0.0264262184500694,-0.5116927027702332,0.858573317527771,0.5289866721569709,8.51839070089921,0.08685763509404,0.1537211388349533,-0.2537277638912201,0.0277652908116579,-1.0171950104087593,-0.3673148879036308,-9.540990073084831,10.0,500.0,25,2019-10-24,9:45,R1,2019-10-24 09:45:31.900,529.8695106927917
277,32.1,7.699999809265138,94.0,-79.78202312751625,40.45931343922656,293.3286931915283,-0.032402329146862,0.037319865077734,-0.5094635486602783,0.8590717911720276,0.5217656429927158,8.496057209922169,0.4046739736181083,-0.1064706146717071,-0.2736095190048218,-0.0307222288101911,-0.8782300101220608,-0.4039160824567079,-9.33416119158268,10.0,500.0,25,2019-10-24,9:45,R1,2019-10-24 09:45:32.100,520.9122557049415
277,32.2,7.5,95.0,-79.78200497260688,40.45931976431864,293.2787301940918,-0.0459513738751411,0.0451214797794818,-0.5064717531204224,0.859848141670227,0.5573731861655072,8.477921998016505,0.6676836219805848,0.0312620960175991,-0.1296625882387161,-0.0712477415800094,-0.7905179746448994,-0.2450774377025664,-9.471947320103643,10.0,500.0,25,2019-10-24,9:45,R1,2019-10-24 09:45:32.200,534.948481989868
277,32.3,7.400000095367432,95.0,-79.7819958654691,40.45932302325113,293.2514589233398,-0.0515917055308818,0.0475903749465942,-0.5050987005233765,0.8602027297019958,0.5740354719993135,8.510712089419886,0.8114711036146371,0.0366780869662761,-0.1980612426996231,-0.1233220025897026,-0.7408001963049173,-0.2527085109427571,-9.749403550028802,10.0,500.0,25,2019-10-24,9:45,R1,2019-10-24 09:45:32.300,545.2752053077019
277,32.5,7.300000190734862,88.0,-79.78198694236659,40.4593261935696,293.23078707885736,-0.0584048517048358,0.0492878444492816,-0.5045654773712158,0.8599845767021179,0.5674288781371591,8.518859969729844,0.9435273103210908,-0.1997764408588409,-0.3104706406593323,0.0808075368404388,-0.8162237964570522,-0.4603312250599265,-9.593929594159128,10.0,500.0,25,2019-10-24,9:45,R1,2019-10-24 09:45:32.500,547.7038966280816
277,32.7,7.199999809265138,87.0,-79.78196882973317,40.459332834676665,293.18705729675287,-0.0752039477229118,0.0572332479059696,-0.5035773515701294,0.8587658405303955,0.5484620082632704,8.593352697440046,1.2300663693412677,0.1080627366900444,-0.236447274684906,-0.1100777015089988,-0.5983583319559693,-0.2401159473136067,-9.834555966854095,10.0,500.0,25,2019-10-24,9:45,R1,2019-10-24 09:45:32.700,556.1959622233408
277,32.8,7.099999904632568,87.0,-79.78195954521631,40.45933623856246,293.1631944580078,-0.0810231119394302,0.0631662085652351,-0.5027667284011841,0.8582953214645386,0.5250311061561506,8.657648850798488,1.4084056581479591,0.1174907460808754,-0.1530291438102722,0.0487974509596824,-0.8654360830038786,-0.2012265728227794,-9.75713239967823,10.0,500.0,25,2019-10-24,9:45,R1,2019-10-24 09:45:32.800,629.1022832999004
277,32.9,7.099999904632568,87.0,-79.78194078090372,40.4593431083587,293.1115453643799,-0.0877737328410148,0.0672965794801712,-0.501625657081604,0.857985258102417,0.4939435649921375,8.818229047020559,1.7688778093585578,-0.1126011162996292,-0.1163920238614082,-0.0145534584298729,-0.8311317113041878,-0.3577729263156653,-10.189940378665924,10.0,500.0,25,2019-10-24,9:45,R1,2019-10-24 09:45:32.900,598.4372146240131
277,33.1,7.099999904632568,82.0,-79.78192162702281,40.459350220156,293.0641172332764,-0.0929097905755043,0.0711625963449478,-0.5019780993461609,0.8569256663322449,0.5242675239507941,9.02091141266304,1.9498745129675288,0.1358985006809234,-0.1068490520119667,0.1508993059396743,-0.972396640777588,-0.3298399000614881,-10.154045491218568,10.0,500.0,25,2019-10-24,9:45,R1,2019-10-24 09:45:33.100,571.3690581170486
277,33.2,7.099999904632568,81.0,-79.78191176701344,40.45935390498217,293.0542009277344,-0.0951359421014785,0.0758991464972496,-0.5034132599830627,0.8554319143295288,0.4972892360854589,9.124586585173532,2.0886057584993303,0.1378563046455383,-0.0214245803654193,-0.0316743180155754,-0.9812332454323768,-0.4295721298456192,-10.096183784008025,10.0,500.0,25,2019-10-24,9:45,R1,2019-10-24 09:45:33.200,585.693717369293
277,33.41,7.199999809265138,80.0,-79.78190177073158,40.459357644567326,293.0473192138672,-0.0931803658604622,0.0778010711073875,-0.5050956010818481,0.8544840216636658,0.4603704811540198,9.222971628305396,2.238858120057368,0.1126921400427818,0.1731593310832977,0.118583358824253,-0.935314403101802,-0.3014352593198419,-10.449201242923737,10.0,500.0,25,2019-10-24,9:45,R1,2019-10-24 09:45:33.410,557.1489129986185
277,33.61,7.300000190734862,80.0,-79.78187154990806,40.45936875528201,292.97001818847656,-0.0678351670503616,0.0682170093059539,-0.5109043121337891,0.85423743724823,0.3726688811505566,9.531748601452811,1.9841187976708707,-0.1137655228376388,0.1397769898176193,0.105242520570755,-1.0998487658053635,-0.2693842583522201,-10.003311288356784,10.0,500.0,25,2019-10-24,9:45,R1,2019-10-24 09:45:33.610,581.9321906644437
277,33.7,7.400000095367432,80.0,-79.78186117170355,40.45937259957568,292.9690301818848,-0.0655305907130241,0.0597818307578563,-0.5126835107803345,0.8539833426475525,0.3650374164727614,9.628270291702144,1.8521833397827576,-0.0387400947511196,0.1388790160417556,0.1457819938659668,-1.2366144821047784,-0.3393520408496261,-10.1704609644413,10.0,500.0,25,2019-10-24,9:45,R1,2019-10-24 09:45:33.700,534.9610066295501
277,34.2,7.900000095367432,82.0,-79.78181882371072,40.45938811880081,292.9172475738525,-0.0492242984473705,0.0593743622303009,-0.5175793170928955,0.8521521687507629,0.3060415415689742,9.845807429978851,1.4584522707788417,-0.105166494846344,0.0431068576872348,0.0904774293303489,-1.328040668964386,-0.4407628235220909,-9.59443128526211,10.0,500.0,25,2019-10-24,9:45,R1,2019-10-24 09:45:34.200,473.9731056650635
277,34.6,8.5,82.0,-79.78176521286676,40.459407357548855,292.89433459472656,-0.0431706719100475,0.0439902879297733,-0.5169467926025391,0.8537957668304443,0.3715973459659121,9.910694804456131,1.1971177259828345,0.0331748612225055,0.026687704026699,-0.2539330422878265,-1.2751062642037871,-0.3299366714805365,-9.859235894680022,10.0,500.0,25,2019-10-24,9:45,R1,2019-10-24 09:45:34.600,513.8656464034647
277,34.8,8.600000381469728,81.0,-79.78175456535548,40.45941119583072,292.89148120117187,-0.0433829464018344,0.0488667376339435,-0.5162685513496399,0.8539302945137024,0.4048257038576864,9.912953771049793,1.172211620046422,0.1505730003118515,-0.072432167828083,-0.0929807126522064,-1.2589112310111523,-0.2461664268001914,-9.681396923661232,10.0,500.0,25,2019-10-24,9:45,R1,2019-10-24 09:45:34.800,494.089128085885
277,35.2,8.899999618530273,80.0,-79.78171124204762,40.45942637629906,292.8880060119629,-0.0490022227168083,0.0406148172914981,-0.5129185318946838,0.8560746312141418,0.5136168349177197,9.923351961111004,1.2780080838421068,-0.101826511323452,-0.0356608852744102,0.1063817143440246,-1.3143755798041823,-0.2945546213909984,-9.511523614525798,10.0,500.0,25,2019-10-24,9:45,R1,2019-10-24 09:45:35.200,502.59700621687807
277,35.3,8.899999618530273,80.0,-79.7816898784841,40.45943402194492,292.8768556518554,-0.04944659024477,0.0336721204221248,-0.5128885507583618,0.856368362903595,0.519690191274651,9.924222288757058,1.1511392298077172,0.014698039740324,-0.0680514350533485,-0.2059601545333862,-1.0480082289129495,-0.0470482685789466,-9.5543158775568,10.0,500.0,25,2019-10-24,9:45,R1,2019-10-24 09:45:35.300,468.0548005660421
277,35.5,9.0,82.0,-79.78167872779913,40.45943780412803,292.87964419555664,-0.0503613390028476,0.0324029512703418,-0.5123515725135803,0.8566853404045105,0.5206821243233817,9.950818030478889,1.108115242138776,-0.0578245446085929,-0.0466002114117145,-0.069218136370182,-1.0255552862584592,-0.1878213193081319,-9.512778427004816,10.0,500.0,25,2019-10-24,9:45,R1,2019-10-24 09:45:35.500,496.66809573443606
277,35.7,8.899999618530273,83.0,-79.78165695253985,40.45944549807447,292.88274745178217,-0.0474959686398506,0.0380185805261135,-0.5108652710914612,0.8575053811073303,0.5156722897423602,9.949045666407798,1.1037196992672458,0.1712847501039505,-0.1169102489948272,0.2028974741697311,-1.211767762452364,-0.5172126831114292,-9.553361027240754,10.0,500.0,25,2019-10-24,9:45,R1,2019-10-24 09:45:35.700,483.9256954064331
277,35.81,8.899999618530273,83.0,-79.7816356125429,40.45945325787599,292.86064318847656,-0.0454209931194782,0.0428379476070404,-0.5097974538803101,0.858025848865509,0.505643231890972,9.945866559382916,1.107805527836697,-0.106448121368885,0.0334129109978675,0.0427376963198185,-1.1277440775185823,-0.346706778332591,-9.596969561576843,10.0,500.0,25,2019-10-24,9:45,R1,2019-10-24 09:45:35.810,509.3665529920909
277,36.0,8.899999618530273,84.0,-79.78162473449282,40.45945695747403,292.8651159210205,-0.0441485121846199,0.0414813682436943,-0.5096694231033325,0.8582350611686707,0.5253623964096223,9.9354729554825,1.1381100945147151,-0.0134775340557098,-0.0323061719536781,0.2413663119077682,-1.4555609871447086,-0.5902152436226606,-9.581130623817444,10.0,500.0,25,2019-10-24,9:45,R1,2019-10-24 09:45:36.000,512.287504443928
277,36.1,8.800000190734863,84.0,-79.78161408572224,40.45946083852562,292.85566310119634,-0.0439564287662506,0.0392880365252494,-0.5096545219421387,0.8583570122718811,0.517555726668626,9.930243592104189,1.0939168971369684,-0.0844273269176483,-0.0649538487195968,-0.003400397254154,-0.9599588821828364,-0.3903367280960083,-9.716268548369408,10.0,500.0,25,2019-10-24,9:45,R1,2019-10-24 09:45:36.100,513.2987260952359
277,36.3,8.800000190734863,85.0,-79.78159258921437,40.45946852113553,292.8473394317627,-0.0461784191429615,0.0394345745444297,-0.5089904069900513,0.8586275577545166,0.5318516068370469,9.92213095541183,1.1181611374591882,-0.0404613092541694,0.0033862979616969,-0.0397993698716163,-1.110803743600845,-0.2740988317877054,-9.953939738273624,10.0,500.0,25,2019-10-24,9:45,R1,2019-10-24 09:45:36.300,494.43597968811815
277,36.4,8.899999618530273,86.0,-79.78157120487263,40.45947618742765,292.843021194458,-0.042988646775484,0.0446786768734455,-0.5096650123596191,0.8581360578536987,0.5297375232582779,9.901034912888374,1.186581773748932,0.0636862516403198,-0.0799176469445228,-0.2203765362501144,-1.0617314247787,-0.1581713678129017,-9.812075761556626,10.0,500.0,25,2019-10-24,9:45,R1,2019-10-24 09:45:36.400,499.4912122083478
277,36.5,8.800000190734863,86.0,-79.78156059271124,40.45948006171165,292.8411920471192,-0.0425103195011615,0.0488889180123806,-0.5102103352546692,0.8576061129570007,0.5097102302345,9.890552774755111,1.1880860712761692,0.0459382273256778,-0.0098475366830825,-0.0163876023143529,-1.2598464931547642,-0.2922651075571775,-9.779278728961945,10.0,500.0,25,2019-10-24,9:45,R1,2019-10-24 09:45:36.500,514.5469199655272
277,36.7,8.800000190734863,87.0,-79.78154971187273,40.45948396828767,292.8354051513672,-0.0426061563193798,0.0513430051505565,-0.5108875036239624,0.8570547103881836,0.4967997145954621,9.898771178962525,1.2189162526312372,0.0363936945796012,-0.02556455694139,-0.1368681341409683,-1.0983902509510517,-0.1627774936705827,-9.697869114875791,10.0,500.0,25,2019-10-24,9:45,R1,2019-10-24 09:45:36.700,542.5289413100834
277,36.9,8.800000190734863,86.0,-79.78151767786096,40.45949556066842,292.8250997467041,-0.0447636097669601,0.044257178902626,-0.511865496635437,0.8567561507225037,0.4703675087036263,9.896314305064193,1.2228482835489465,0.0132273510098457,-0.0292102750390768,0.0327644646167755,-1.3884530778229238,-0.4421500023454428,-9.736511608958244,10.0,500.0,25,2019-10-24,9:45,R1,2019-10-24 09:45:36.900,497.2969848109641
277,37.0,8.800000190734863,87.0,-79.78150706749855,40.45949942042103,292.8257177276612,-0.0417920239269733,0.0391856208443641,-0.5116417407989502,0.8572868704795837,0.4823850071269096,9.864817818559054,1.2508440133084076,0.0493165254592895,0.2581622898578644,-0.062507688999176,-1.428761736005545,-0.0195670493692159,-9.989556298255922,10.0,500.0,25,2019-10-24,9:45,R1,2019-10-24 09:45:37.000,513.5301176685099
277,37.1,8.699999809265138,87.0,-79.78149630260407,40.45950316247961,292.81762866210937,-0.0214637238532304,0.0263863187283277,-0.5114749670028687,0.8586247563362122,0.4977836244324131,9.7911096234563,1.1761794790266482,0.0072045079432427,0.6715917587280273,-0.2640634775161743,-1.4904198941588402,-0.2359250103123486,-10.224247162342072,10.0,500.0,25,2019-10-24,9:45,R1,2019-10-24 09:45:37.100,503.9393939982401
277,37.3,8.600000381469728,92.0,-79.78147553881924,40.459510675453465,292.84154109191894,0.0536785311996936,-0.0129931084811687,-0.5103558897972107,0.8581879734992981,0.544511434045968,9.57046431709381,0.0257945572335092,0.036473773419857,0.9096952080726624,-0.0436023660004138,-0.9691764329373836,-0.1694585040025413,-10.44669629573822,10.0,500.0,25,2019-10-24,9:45,R1,2019-10-24 09:45:37.300,520.2637474712901
277,37.5,8.5,107.0,-79.78146473596634,40.45951444214328,292.81094912719726,0.0865955427289009,-0.0311062205582857,-0.5086540579795837,0.8560401201248169,0.5581547698077128,9.361680530557406,-0.7820107418383351,0.0419804267585277,0.7359299659729004,-0.1455949246883392,-0.5988539931178093,-0.3104542240127921,-10.715308027267458,10.0,500.0,25,2019-10-24,9:45,R1,2019-10-24 09:45:37.500,540.1577634531204
277,37.6,8.300000190734862,107.0,-79.78145475596523,40.45951803370054,292.8353517456054,0.1058685705065727,-0.0451556406915187,-0.5070438981056213,0.854201078414917,0.5713549832959876,9.035124012575135,-1.379953695612158,-0.2337335348129272,0.2706581056118011,-0.0585694946348667,-0.3428446558490396,-0.1240256201103329,-10.774557863473891,10.0,500.0,25,2019-10-24,9:45,R1,2019-10-24 09:45:37.600,516.1804136981954
277,37.8,8.199999809265138,108.0,-79.78143545384869,40.45952481055424,292.8611333770752,0.1168388351798057,-0.0519783645868301,-0.5049366950988771,0.8536310791969299,0.5957192996898105,8.348296584131656,-1.8371391706417883,0.0290525164455175,-0.0533486865460872,-0.1061622127890586,-0.5112166192755103,-0.4719365228712559,-10.50080642938614,10.0,500.0,25,2019-10-24,9:45,R1,2019-10-24 09:45:37.800,456.3702074099892
277,37.9,8.0,124.0,-79.78142646355441,40.45952798561344,292.88929537963867,0.1125358715653419,-0.0510945208370685,-0.5047695636749268,0.8543610572814941,0.6009300501628714,8.02800512855617,-1.7927778960863658,-0.0154544906690716,-0.0279915500432252,0.0227843709290027,-0.6013772859424353,-0.2442326794937253,-10.212531681060794,10.0,500.0,25,2019-10-24,9:45,R1,2019-10-24 09:45:37.900,446.6139783809703
277,38.0,7.800000190734862,121.0,-79.78140926740949,40.45953400985746,292.92251376342773,0.114734299480915,-0.049256395548582,-0.5014951825141907,0.8561031222343445,0.6191592967713415,7.426199472192472,-1.6702744771946478,0.127835139632225,0.1490389108657837,0.0651295930147171,-0.8440474797785282,-0.4025345315784216,-9.700340732932087,10.0,500.0,25,2019-10-24,9:45,R1,2019-10-24 09:45:38.000,444.1575770196503
277,38.2,7.400000095367432,122.0,-79.78139325607037,40.459539609873936,292.9372003479004,0.135636419057846,-0.0588781498372554,-0.4975342750549317,0.8547490239143372,0.6736094861191378,6.762244890180678,-1.9129503664196923,-0.0124962069094181,0.1834774315357208,-0.0086984159424901,-0.8228893299400807,-0.1686091593839228,-9.339101504087449,10.0,500.0,25,2019-10-24,9:45,R1,2019-10-24 09:45:38.200,418.3888914222116
277,38.4,7.199999809265138,123.0,-79.78138582036148,40.45954215616671,292.9232156677246,0.1469739079475402,-0.0636033862829208,-0.4953743517398834,0.8537901639938354,0.6987800294730322,6.378335998970621,-2.129778102108306,0.0611668042838573,0.2227523773908615,0.0765162631869316,-0.4480458229780197,-0.5773954060301185,-9.030401846766472,10.0,500.0,25,2019-10-24,9:45,R1,2019-10-24 09:45:38.400,453.7635321425514
277,38.5,6.699999809265138,131.0,-79.78137856868791,40.45954455796995,292.91942958068853,0.153269350528717,-0.0663564503192901,-0.4939200878143311,0.853316068649292,0.7149932967002611,6.012161753875652,-2.308704079543656,0.0501929596066474,0.0542843379080295,-0.0761831700801849,-0.2027087140828371,-0.3362618970125914,-8.98439361512661,10.0,500.0,25,2019-10-24,9:45,R1,2019-10-24 09:45:38.500,442.82573551856336
277,38.6,6.4000000953674325,133.0,-79.78136525599318,40.45954888355181,292.85159854125976,0.1545689404010772,-0.0680761560797691,-0.4916677474975586,0.8542464971542358,0.7385761719751311,5.284899751586006,-2.4751614328690925,-0.0687329173088073,0.081128641963005,-0.0236916318535804,-0.0774706555344164,-0.2536781254783273,-8.922952242493631,10.0,500.0,25,2019-10-24,9:45,R1,2019-10-24 09:45:38.600,448.30647817630233
277,38.8,5.9000000953674325,137.0,-79.78135321355566,40.45955278452825,292.7025354309082,0.1494764983654022,-0.0740563943982124,-0.4918891489505768,0.8545277714729309,0.7527737441387745,4.6156210573179735,-2.488978931335679,-0.1160276159644126,-0.0063950684852898,0.0295576285570859,-0.3108289574459195,-0.2274035705812276,-9.222565326690674,10.0,500.0,25,2019-10-24,9:45,R1,2019-10-24 09:45:38.800,530.2865454684434
277,38.91,5.699999809265138,139.0,-79.78134773900085,40.45955443444323,292.6378744049072,0.150639995932579,-0.0775297731161117,-0.4919039607048034,0.8540066480636597,0.7301371242856294,4.289761074969408,-2.4475090919777283,-0.0440163873136043,0.1415519714355468,-0.1699595004320144,-0.0694800150766968,-0.1165790630690753,-9.589462321400642,10.0,500.0,25,2019-10-24,9:45,R1,2019-10-24 09:45:38.910,558.1608373800738
277,39.11,5.099999904632568,142.0,-79.7813377915612,40.45955738483256,292.4813859863281,0.1547323614358902,-0.0790677443146705,-0.4909363090991974,0.8536907434463501,0.7002629888032388,3.6131025188641135,-2.3638494155214715,0.0007571226451545,-0.0202659163624048,-0.0770457759499549,0.1211471911612898,-0.3715181223303079,-9.844213228225708,10.0,500.0,25,2019-10-24,9:45,R1,2019-10-24 09:45:39.110,586.6511876126023
277,39.3,4.800000190734863,147.0,-79.7813332870144,40.4595586933112,292.3798845214844,0.1535916030406952,-0.0765313282608985,-0.4909673929214478,0.8541098833084106,0.6958155729964446,3.2760359618745123,-2.258734159831826,0.0442265905439853,-0.0014488756423816,0.0241044908761978,0.006381788207218,-0.2480432733893394,-10.273486565351488,10.0,500.0,25,2019-10-24,9:45,R1,2019-10-24 09:45:39.300,730.9754004122807
277,39.4,4.199999809265137,156.0,-79.78132549717705,40.45956079658523,292.252876083374,0.155850812792778,-0.085555724799633,-0.4885302186012268,0.8542417883872986,0.6451531315677671,2.6507797325257414,-1.7576984724987463,-0.2208475917577743,0.2010526210069656,0.0155106866732239,0.0477997088804841,-0.4971597301214933,-11.553214030265806,10.0,500.0,25,2019-10-24,9:45,R1,2019-10-24 09:45:39.400,735.8970952084637
277,39.61,3.900000095367432,161.0,-79.78132219668511,40.45956165005588,292.18253306579584,0.1576439142227172,-0.1014772579073906,-0.4867046773433685,0.8532112240791321,0.5864577059932295,2.313264438958575,-1.533538715405049,-0.3034475743770599,0.1743610799312591,-0.2095120698213577,0.3950893815234304,-0.2650826993398369,-11.656237292289736,10.0,500.0,25,2019-10-24,9:45,R1,2019-10-24 09:45:39.610,723.8109164469861
277,39.8,3.5999999046325684,171.0,-79.78131687684225,40.459563286367,292.1114080352783,0.1543699204921722,-0.1042073220014572,-0.4834770560264587,0.8553133010864258,0.4492165100324903,1.7138114014700307,-1.0780752998130416,0.0798301473259925,-0.1458684802055359,-0.0779581218957901,0.6223272018134595,-0.0716742741130292,-11.689558235406876,10.0,500.0,25,2019-10-24,9:45,R1,2019-10-24 09:45:39.800,719.0315397001688
277,39.91,3.400000095367432,179.0,-79.78131477015101,40.45956376068148,292.0837934417725,0.1519666910171508,-0.0937613397836685,-0.4837768673896789,0.8567816615104675,0.4424571420034163,1.4351840011893824,-0.7960486438467236,0.2817766666412353,-0.21269191801548,0.1064518988132476,0.5773381033167243,-0.2942808803357184,-11.716580557823182,10.0,500.0,25,2019-10-24,9:45,R1,2019-10-24 09:45:39.910,729.90150189391
277,40.01,3.2000000476837163,195.0,-79.78131358831351,40.45956417535884,292.00403765869135,0.1497685313224792,-0.0790224075317382,-0.4880872666835785,0.8562100529670715,0.3930951417386869,1.1736996996250366,-0.5500459530274046,0.2725379467010498,-0.2440775185823441,0.2233645915985107,0.5782696744054556,-0.3122884590178728,-11.777113273143769,10.0,500.0,25,2019-10-24,9:45,R1,2019-10-24 09:45:40.010,723.2102903406485
277,40.21,3.2000000476837163,203.0,-79.78131219563599,40.45956443579037,291.94391612243646,0.141580119729042,-0.0566972270607948,-0.5041459202766418,0.8500456213951111,0.324912710627859,0.6739768951215419,-0.0178030193273644,0.0598577111959457,-0.1318379640579223,0.1489228159189224,0.6566950158029795,-0.5417090449109674,-11.758562396764756,10.0,500.0,25,2019-10-24,9:45,R1,2019-10-24 09:45:40.210,611.360880188826
277,40.3,3.2000000476837163,216.0,-79.7813114807228,40.45956440944147,291.9702451629638,0.1377999186515808,-0.0534399077296257,-0.512408435344696,0.845927357673645,0.3094083447392654,0.5086010108262558,0.2047330576118882,-0.0210938472300767,-0.3316405117511749,-0.0540529377758502,1.1594399332255123,-0.3277360718697309,-11.146406865119936,10.0,500.0,25,2019-10-24,9:45,R1,2019-10-24 09:45:40.300,588.2749955799372
277,40.4,3.2000000476837163,219.0,-79.78131177395593,40.4595640699289,291.97066287231445,0.0619937442243099,-0.0092419413849711,-0.5566110610961914,0.828405499458313,0.3181498857370037,0.2282657379269031,0.3873698497053181,-0.1532482653856277,-0.6291931867599487,0.7017473578453064,0.547924744784832,-0.2294610413163901,-10.556300014257433,10.0,500.0,25,2019-10-24,9:45,R1,2019-10-24 09:45:40.400,549.4211640674622
277,40.6,3.5,230.0,-79.78131270105838,40.45956379953493,291.9866159362793,0.044163953512907,-0.0040752165950834,-0.6358494162559509,0.7705378532409668,0.2903084482105033,0.0449610915012906,0.4012119003255703,-0.0344683080911636,0.2854675948619842,1.2171380519866943,0.2548878778517246,-0.3002529523149133,-9.864501897096632,10.0,500.0,25,2019-10-24,9:45,R1,2019-10-24 09:45:40.600,501.4478208598084
277,40.8,3.5999999046325684,233.0,-79.78131256532562,40.45956353817589,292.0239332122802,0.0507338270545005,-0.0097661353647708,-0.6794356107711792,0.7319139838218689,0.2811763472386499,0.0705303327895932,0.3735519403569024,-0.104526363313198,0.2449238151311874,1.3070554733276367,0.5023702205345035,-0.7356645867973567,-9.737361209392546,10.0,500.0,25,2019-10-24,9:45,R1,2019-10-24 09:45:40.800,550.0302859771037
277,40.9,4.0,236.0,-79.78131385753031,40.45956370307118,292.0197122497558,0.0571068488061428,-0.0189463831484317,-0.7692127227783203,0.6361537575721741,0.1827759038699961,0.0073845203813947,0.3051621984546774,-0.1661692857742309,0.1399861872196197,1.5322929620742798,0.5748768275231123,-0.8832817120850087,-9.669175658226012,10.0,500.0,25,2019-10-24,9:45,R1,2019-10-24 09:45:40.900,562.9693976368288
277,41.1,4.099999904632568,243.0,-79.78131391401817,40.459563519934335,292.0494821472168,0.0569351613521575,-0.0200050063431262,-0.8113863468170166,0.5813868045806885,0.1819221007374532,-0.0121767003315499,0.3193639769445036,-0.1347127258777618,0.1467539221048355,1.4229543209075928,0.3985370460525156,-0.745145627707243,-9.850086171627048,10.0,500.0,25,2019-10-24,9:45,R1,2019-10-24 09:45:41.100,567.2345925371227
277,41.2,4.400000095367432,240.0,-79.78131566541158,40.45956432153166,292.0434263153076,0.0568623095750808,-0.0203731320798397,-0.8520929217338562,0.5198935270309448,0.1373042811155421,-0.1414275976384639,0.3179744476279776,-0.1504916250705719,0.0835150703787803,1.5175001621246338,0.3306847496330738,-0.9167779254913332,-9.87959706902504,10.0,500.0,25,2019-10-24,9:45,R1,2019-10-24 09:45:41.200,531.4013511178964
277,41.3,4.400000095367432,238.0,-79.78131626411091,40.45956420534917,292.1040151519776,0.0460728034377098,-0.0168100111186504,-0.9194172620773317,0.3902135789394378,0.1643064224951334,-0.2034012465739399,0.3373976773135736,-0.2225057631731033,-0.0870111808180809,1.439236044883728,0.0980041674245149,-0.7664963702112436,-9.775464590191842,10.0,500.0,25,2019-10-24,9:45,R1,2019-10-24 09:45:41.300,546.4356430525585
277,41.5,4.5,257.0,-79.78131782895048,40.45956406834865,292.19348315429687,0.034575417637825,-0.0092368395999073,-0.9667640924453736,0.2531530559062958,0.2644807514461632,-0.2643650183879967,0.3280252766887018,-0.0674376189708709,0.0827694237232208,1.3868310451507568,-0.0946309543959796,-0.6573414985835553,-9.80494683623314,10.0,500.0,25,2019-10-24,9:45,R1,2019-10-24 09:45:41.500,514.9663018129651
277,41.7,4.5,261.0,-79.7813189620357,40.45956368266539,292.2759855194092,0.0317871607840061,-0.0069916960783302,-0.9824038147926332,0.1839113533496856,0.3400274763259371,-0.2618496985211438,0.3264529803672401,-0.0762339383363723,0.0445966646075248,1.400774359703064,-0.1569944329373538,-0.6658050508797169,-9.713321551680565,10.0,500.0,25,2019-10-24,9:45,R1,2019-10-24 09:45:41.700,517.9177987039149
277,41.8,4.599999904632568,248.0,-79.78131948859608,40.45956376188385,292.304052154541,0.0277754794806242,-0.0064017777331173,-0.9930805563926696,0.113923467695713,0.3642840668827724,-0.2649222692773788,0.2936312106885976,-0.0682656913995742,0.05022893846035,1.3352375030517578,-0.2252567653544247,-0.5141007949411869,-9.537733758687974,10.0,500.0,25,2019-10-24,9:45,R1,2019-10-24 09:45:41.800,549.8954282621345
277,42.0,4.599999904632568,241.0,-79.78132078295955,40.459563649205386,292.4361780090332,-0.0206423588097095,0.0004856418236158,0.999489963054657,0.0243654139339923,0.4173536436725041,-0.2124606015380481,0.2867748690970602,-0.1202822923660278,-0.0238867402076721,1.27153480052948,-0.3649302837252617,-0.5981335796043277,-9.658088752627371,10.0,500.0,25,2019-10-24,9:45,R1,2019-10-24 09:45:42.000,559.6706951687958
277,42.1,4.5,252.0,-79.78132251861193,40.45956386762296,292.5417611999512,-0.008792913518846,-0.00345672480762,0.9905036091804504,0.1371624022722244,0.4611831097413018,-0.1686671417405929,0.3026284747168479,-0.0967422127723693,0.006570650730282,0.8956502676010132,-0.4446533780917525,-0.4720223307609558,-9.75386789917946,10.0,500.0,25,2019-10-24,9:45,R1,2019-10-24 09:45:42.100,551.0650548042687
277,42.3,4.5,252.0,-79.78132300226672,40.459564092018,292.57060412597656,-0.0052853263914585,-0.006683200597763,0.983977437019348,0.1780897676944732,0.4399678648250363,-0.1436313129909233,0.2938852372130211,-0.0832576304674148,-0.0055714072659611,0.7977584600448608,-0.4079936017468572,-0.4862904505804181,-9.777736818194391,10.0,500.0,25,2019-10-24,9:45,R1,2019-10-24 09:45:42.300,641.057983722567
277,42.4,4.5,239.0,-79.78132344400535,40.45956432520745,292.59934786987304,-0.0044215321540832,-0.0121234199032187,0.9780345559120178,0.2080432772636413,0.4280955991843527,-0.1170738752953135,0.283642662512955,0.0234843716025352,-0.1634271591901779,0.402060866355896,-0.1695001105964184,-0.1410451655276119,-9.718358927965165,10.0,500.0,25,2019-10-24,9:45,R1,2019-10-24 09:45:42.400,642.0233057051156
277,42.6,4.400000095367432,233.0,-79.78132478442262,40.45956449312585,292.7200696868896,-0.045801680535078,-0.0612791664898395,0.9679144024848938,0.2393509298563003,0.4638554331164548,0.0527725422233842,0.3999062293787987,0.2668413519859314,-0.6305114030838013,0.0643904507160186,-0.2865883930586279,-0.4535413286089897,-10.247779866456987,10.0,500.0,25,2019-10-24,9:45,R1,2019-10-24 09:45:42.600,625.1765058271121
277,42.71,4.400000095367432,246.0,-79.78132586263908,40.45956471150907,292.79362467956537,-0.0543931946158409,-0.0885794982314109,0.964702010154724,0.2419612854719162,0.4754346431508438,0.1152104592697688,0.4894160367310865,-0.1325079947710037,-0.4520441591739655,0.0894077867269516,-0.6280248749256134,-0.6407593066245317,-10.287323416471482,10.0,500.0,25,2019-10-24,9:45,R1,2019-10-24 09:45:42.710,641.7119258254535
277,42.9,4.5,258.0,-79.78132736352505,40.45956455726324,292.8899438781738,-0.0368839651346206,-0.1133999973535537,0.9650999903678894,0.2331567257642746,0.4952976867118755,0.3821843053660528,0.6701493579033032,-0.2920460700988769,-0.1057135388255119,-0.1056089103221893,-0.7239730791002512,-0.4120255127549172,-10.341628847122193,10.0,500.0,25,2019-10-24,9:45,R1,2019-10-24 09:45:42.900,613.4673210641814
277,43.0,4.5,250.0,-79.78132949864009,40.45956414468144,293.01722125244135,-0.0159390587359666,-0.1161025017499923,0.9692328572273254,0.216457426548004,0.5189407772704221,0.6860618958531591,0.7961303560188241,-0.1505605578422546,0.0901553258299827,-0.0752692818641662,-0.5074737434461714,-0.1318257144279778,-10.411224746704102,10.0,500.0,25,2019-10-24,9:45,R1,2019-10-24 09:45:43.000,605.781292563006
277,43.21,4.599999904632568,247.0,-79.78133200830203,40.459562980898426,293.14624575805664,-0.0117346299812197,-0.1169335693120956,0.9722760319709778,0.2021590173244477,0.5143563825416643,1.0132504012716617,0.8425220019866658,-0.0385200753808021,-0.0407408848404884,-0.2468383759260177,-0.3420411387830973,-0.0610399247333407,-10.00741369485855,10.0,500.0,25,2019-10-24,9:45,R1,2019-10-24 09:45:43.210,567.4068890666749
277,43.3,4.699999809265137,217.0,-79.7813331309532,40.459562113720864,293.2054593963623,-0.0121893640607595,-0.1197423487901687,0.9727576971054076,0.198130577802658,0.4854164285376175,1.1807028122546472,0.8666687566488068,0.023152969777584,-0.0472675077617168,-0.1475913226604461,-0.5117261310294271,-0.1214828122034668,-9.750130358934404,10.0,500.0,25,2019-10-24,9:45,R1,2019-10-24 09:45:43.300,514.1762303156573
277,43.4,4.800000190734863,211.0,-79.78133481515486,40.459561204529365,293.27033786010736,-0.0119853392243385,-0.1225766390562057,0.9728564620018004,0.1959125697612762,0.4721696795694433,1.3238574921973962,0.8479414454126478,-0.0815969705581665,-0.083733320236206,0.0288635846227407,-0.648992113173008,-0.3127691732347012,-9.445714956521988,10.0,500.0,25,2019-10-24,9:45,R1,2019-10-24 09:45:43.400,520.5584331043063
277,43.6,5.0,209.0,-79.78133797334777,40.45955881296336,293.4014299316406,-0.0128688989207148,-0.1280402392148971,0.9717844724655152,0.1976741850376129,0.4577964981538971,1.6511272954024383,0.8504183471154685,0.0433661080896854,-0.0198879074305296,0.0745978876948356,-0.4011692798137665,-0.2284822539612651,-9.485045667886734,10.0,500.0,25,2019-10-24,9:45,R1,2019-10-24 09:45:43.600,555.8117764719755
277,43.8,5.099999904632568,208.0,-79.78134063700206,40.45955581279626,293.4762609405517,-0.0142197264358401,-0.1242700144648552,0.9708420634269714,0.20450060069561,0.3550569886381647,1.9811557052007307,0.849774521342465,0.1096598133444786,0.0695769563317298,-0.0067242025397717,-0.8534131112694741,-0.1661239100061357,-9.335559260845184,10.0,500.0,25,2019-10-24,9:45,R1,2019-10-24 09:45:43.800,503.021351986252
277,43.9,5.300000190734863,211.0,-79.78134250460934,40.45955389022001,293.56763247680664,-0.0131623530760407,-0.1190182119607925,0.9705359935760498,0.209096685051918,0.3138906021053845,2.1426278565338253,0.8649676380307125,-0.0422163121402263,0.1674717217683792,-0.0080807907506823,-0.6075946303457022,-0.0338666893355548,-9.467812169194223,10.0,500.0,25,2019-10-24,9:45,R1,2019-10-24 09:45:43.900,525.2754366152802
277,44.01,5.5,208.0,-79.78134393731409,40.459552043014654,293.596475402832,-0.012239659205079,-0.1175858154892921,0.9697120189666748,0.2137345820665359,0.2590418086897906,2.3115277592739982,0.8204022059782196,0.0397751703858375,0.0349224917590618,-0.0486542247235775,-0.5585907239466906,-0.1470323854498565,-9.5231057792902,10.0,500.0,25,2019-10-24,9:45,R1,2019-10-24 09:45:44.010,479.894402932172
277,44.2,5.699999809265138,206.0,-79.78134576336501,40.45954983132196,293.6695249481201,-0.0134736718609929,-0.1196202114224434,0.9685720205307008,0.2176646739244461,0.2095302517650017,2.4633833527038203,0.8128639159478853,0.0512694120407104,-0.0679836645722389,0.0709792524576187,-0.6371350561827421,-0.0065017931722104,-9.288209677934647,10.0,500.0,25,2019-10-24,9:45,R1,2019-10-24 09:45:44.200,489.38230941971415
277,44.4,5.9000000953674325,206.0,-79.78134880912191,40.459545508934944,293.69740657043457,-0.0173647385090589,-0.1253445446491241,0.9663313031196594,0.2240337282419204,0.1004876216022856,2.7522746881636224,0.7523833181898684,0.1653828024864196,-0.0826276466250419,0.102854698896408,-0.92614925801754,-0.1756968435645103,-8.992871493101118,10.0,500.0,25,2019-10-24,9:45,R1,2019-10-24 09:45:44.400,479.7501091584852
277,44.5,6.199999809265138,213.0,-79.78135227817792,40.45954022723511,293.74771670532226,-0.0202610716223716,-0.1288104057312011,0.9648571014404296,0.2281407415866852,0.0020893715781836,3.0614897342997414,0.7412281021412491,0.0938364490866661,-0.1064577475190162,0.1466369479894638,-1.02305223941803,-0.063914178404957,-9.084948182702067,10.0,500.0,25,2019-10-24,9:45,R1,2019-10-24 09:45:44.500,516.461595716537
277,44.8,6.300000190734862,218.0,-79.78135598604806,40.45953440096852,293.7715890808105,-0.0208527855575084,-0.1299712210893631,0.9649022817611694,0.2272362858057022,-0.0678334937909146,3.358331949019896,0.7428126515197351,-0.0673939883708953,-0.0823731794953346,-0.1986314356327057,-0.9620157864689828,0.090155769623816,-9.101378858685496,10.0,500.0,25,2019-10-24,9:45,R1,2019-10-24 09:45:44.800,480.992712202773
277,44.9,6.599999904632568,215.0,-79.78135774004997,40.45953154965378,293.75284365844726,-0.0209354162216186,-0.1314526796340942,0.965117871761322,0.2254540175199509,-0.0929886829074793,3.4947081670420514,0.7168134397857646,-0.0534892827272415,0.0015909349313005,-0.1828490495681762,-0.8877983207255602,-0.1289980466198176,-9.36914040505886,10.0,500.0,25,2019-10-24,9:45,R1,2019-10-24 09:45:44.900,504.3290097086211
277,45.0,6.800000190734862,215.0,-79.781359945505,40.45952814659248,293.7777326507568,-0.0206472184509038,-0.1303375363349914,0.9657381772994996,0.2234631180763244,-0.097368490001252,3.6458561450829534,0.7581051868758584,-0.020503370091319,0.0011369709391146,-0.1602305471897125,-1.119903765320778,0.0193532970920205,-9.164134685397151,10.0,500.0,25,2019-10-24,9:45,R1,2019-10-24 09:45:45.000,526.8745051796178
277,45.1,7.199999809265138,209.0,-79.7813640549966,40.459521371112906,293.7572095794677,-0.0218469779938459,-0.1261070817708969,0.9668468236923218,0.2209683209657669,-0.1146342648804047,3.932601627607572,0.7723396027101448,0.0805117934942245,0.1167546063661575,0.0362478420138359,-1.2060339827835558,0.0501399244694039,-9.517605303525926,10.0,500.0,25,2019-10-24,9:45,R1,2019-10-24 09:45:45.100,505.2692103505251
277,45.31,7.400000095367432,212.0,-79.78136601048385,40.45951802325717,293.729287902832,-0.0237326398491859,-0.1246901303529739,0.967071533203125,0.2205944806337356,-0.1310077090966437,4.073209154516058,0.7700982044018078,-0.0182144325226545,0.0230754297226667,-0.036118745803833,-1.1344478371739388,-0.0289457274600863,-9.510178170204163,10.0,500.0,25,2019-10-24,9:45,R1,2019-10-24 09:45:45.310,479.8967110857048
277,45.4,7.699999809265138,211.0,-79.78136801112544,40.45951456993714,293.69884089660644,-0.0254955012351274,-0.1240157708525657,0.9671831727027892,0.2202879786491394,-0.1359271342669483,4.190987979292746,0.7566337109591279,0.0328941792249679,0.0047068851999938,-0.0965573415160179,-1.1385108480602504,-0.1845498204231262,-9.525617158412931,10.0,500.0,25,2019-10-24,9:45,R1,2019-10-24 09:45:45.400,497.9108007290088
277,45.6,7.900000095367432,210.0,-79.78137256847218,40.45950691683664,293.6651838226318,-0.0282530933618545,-0.1253421604633331,0.9673951864242554,0.218260794878006,-0.1414135457837957,4.438642530592544,0.7972451299000113,-0.0639428868889808,0.112491600215435,-0.1612916588783264,-0.99805334597826,-0.0914798898808658,-9.618462756872178,10.0,500.0,25,2019-10-24,9:45,R1,2019-10-24 09:45:45.600,511.1100796480604
277,45.7,8.300000190734862,220.0,-79.78137508766869,40.45950269671907,293.6380250854492,-0.0283021423965692,-0.1260094046592712,0.9676474332809448,0.2167467325925827,-0.1418318784136722,4.5729184273890136,0.8428749043642405,0.0315449982881546,-0.0653689801692962,-0.0728844255208969,-1.4140440018475056,-0.1538595761731267,-9.500397532582284,10.0,500.0,25,2019-10-24,9:45,R1,2019-10-24 09:45:45.700,532.9648767580803
277,45.81,8.399999618530272,220.0,-79.7813795646012,40.45949484808021,293.5692651672363,-0.0289738643914461,-0.1236992254853248,0.9678630828857422,0.217025488615036,-0.1453274899425805,4.782637030817833,0.914842233303664,0.0689281448721885,0.0996098145842552,0.1572363227605819,-1.5541622923314573,-0.1450786297023296,-9.905027779340744,10.0,500.0,25,2019-10-24,9:45,R1,2019-10-24 09:45:45.810,516.3783584845806
277,46.0,8.699999809265138,220.0,-79.78138483128431,40.459486239342674,293.4795358581543,-0.0328794606029987,-0.1243812814354896,0.9671845436096193,0.2190944105386734,-0.149683056953971,5.007326148527135,0.9961027598979728,0.0975194051861763,0.0013690744526684,0.0182786304503679,-1.4536433927714825,-0.1881221402809024,-10.01585356593132,10.0,500.0,25,2019-10-24,9:45,R1,2019-10-24 09:45:46.000,567.5855009602237
277,46.2,8.899999618530273,220.0,-79.78138761421074,40.45948159118437,293.4134004516601,-0.0354706831276416,-0.1259315013885498,0.9666946530342102,0.2199649214744568,-0.1511392570057841,5.125359956448233,1.0612375647336012,-0.0481676161289215,0.0454165488481521,0.0949302613735199,-1.5070020130276682,-0.1173533806018531,-10.152610584497452,10.0,500.0,25,2019-10-24,9:45,R1,2019-10-24 09:45:46.200,507.2062336038581
277,46.3,9.199999809265137,227.0,-79.78139015220654,40.4594772429294,293.38635806274414,-0.0383905991911888,-0.1279643923044204,0.9664260745048524,0.2194814085960388,-0.1518992224906622,5.2268778171094405,1.126444037302819,0.0350918658077716,-0.066926933825016,0.0521509051322937,-1.6640066237747668,-0.3247926200553775,-9.715117231607437,10.0,500.0,25,2019-10-24,9:45,R1,2019-10-24 09:45:46.300,516.244686640941
277,46.5,9.300000190734863,234.0,-79.78139573362056,40.459468075505946,293.2825563354492,-0.0383148975670337,-0.1342871487140655,0.9660820960998536,0.2172198146581649,-0.1047162955866751,5.431335161374745,1.2112780287367872,0.0299762431532144,-0.1097374334931373,0.1335634738206863,-1.6878559546172618,-0.0187636693473905,-9.88310773730278,10.0,500.0,25,2019-10-24,9:45,R1,2019-10-24 09:45:46.500,586.7703110056208
277,46.6,9.600000381469728,234.0,-79.78139847912831,40.45946346747216,293.2551858825684,-0.0349233783781528,-0.1378278285264969,0.9656779170036316,0.217370718717575,-0.0978659059914294,5.539471964381264,1.3363019319007683,-0.0679396465420723,-0.1236619502305984,0.1080117598176002,-1.61473242983222,-0.0125159285590052,-10.15564061164856,10.0,500.0,25,2019-10-24,9:45,R1,2019-10-24 09:45:46.600,555.8860349645255
277,46.72,9.699999809265137,234.0,-79.78140469684027,40.459453599724576,293.1546323699951,-0.0310125648975372,-0.1437995582818985,0.9648683667182922,0.2176904529333114,-0.0723418272617398,5.758184561230223,1.5291235544105792,0.1327487975358963,-0.0804784968495369,0.0728067681193351,-1.587102435529232,0.1382941967435181,-10.30896863937378,10.0,500.0,25,2019-10-24,9:45,R1,2019-10-24 09:45:46.720,583.1289719603811
277,46.9,9.800000190734863,241.0,-79.78141111091048,40.4594433839792,293.0624521179198,-0.031043441966176,-0.1491029262542724,0.9642713069915771,0.2167615741491317,-0.0725070029677073,5.986436124880267,1.7180563267079083,-0.0589773952960968,0.025852071121335,0.0849649831652641,-1.4873805114626886,0.1671447790414095,-10.344309210777284,10.0,500.0,25,2019-10-24,9:45,R1,2019-10-24 09:45:46.900,597.6395242041907
277,47.0,9.899999618530272,239.0,-79.7814142186421,40.45943823783705,293.0511033935547,-0.0328624546527862,-0.1497242748737335,0.964368224143982,0.2156306952238083,-0.058607338985531,6.095367578804472,1.8208224912721247,0.0830528959631919,0.0090395826846361,-0.1079361289739608,-1.7585015755891802,0.1926520696096122,-10.212087292671203,10.0,500.0,25,2019-10-24,9:45,R1,2019-10-24 09:45:47.000,570.9330873259314
277,47.2,10.199999809265137,238.0,-79.78142101175662,40.45942740297848,292.98380450439447,-0.0381577536463737,-0.1535896360874176,0.9640851616859436,0.2132934927940368,-0.0227938178403283,6.328918979280197,1.9052122917116607,-0.0064160590991377,-0.0359981954097747,0.3019905388355255,-2.075498285740614,-0.4400882375612855,-9.634395834803582,10.0,500.0,25,2019-10-24,9:45,R1,2019-10-24 09:45:47.200,584.0382379939074
