flight,time,wind_speed,wind_angle,position_x,position_y,position_z,orientation_x,orientation_y,orientation_z,orientation_w,velocity_x,velocity_y,velocity_z,angular_x,angular_y,angular_z,linear_acceleration_x,linear_acceleration_y,linear_acceleration_z,speed,payload,altitude,date,time_day,route,datetime,power
177,0.0,1.2999999523162842,59.0,-79.78281262560199,40.45903484986511,266.9045797928572,0.0010160632664337,0.0216263961046934,-0.998144805431366,0.0569055490195751,-0.0072818638010597,-0.0283654485832881,0.0202396463762296,-0.0070420526899397,-0.0071705384179949,-0.0027445147279649,-0.4602934739738703,-0.0508818584773689,-9.799974948763849,10.0,0.0,25,2019-07-09,12:50,R1,2019-07-09 12:50:00.000,-0.5628936764429519
177,0.2,1.2999999523162842,58.0,-79.78281262009332,40.45903477194025,266.9054022997022,0.0010194941423833,0.0216716881841421,-0.9981395602226256,0.0569800212979316,-0.008968706136795,-0.0238708925477186,0.0200882477887124,0.0026396277826279,-0.000182262956514,0.003697745501995,-0.4594870333001018,-0.0528057203348726,-9.80034858584404,10.0,0.0,25,2019-07-09,12:50,R1,2019-07-09 12:50:00.200,-0.1876909675246997
177,0.3,1.2999999523162842,57.0,-79.78281261238233,40.45903479352292,266.90753778511294,0.0010469920234754,0.0216821357607841,-0.9981384873390198,0.0569959878921508,-0.0103506655285838,-0.0271680652522562,0.0203292024327923,-0.0041430667042732,-0.0035118544474244,-0.0066365730017423,-0.4616897890716791,-0.042850086512044,-9.80050879955292,10.0,0.0,25,2019-07-09,12:50,R1,2019-07-09 12:50:00.300,-0.5630430088020383
177,0.5,1.399999976158142,56.0,-79.78281267474918,40.45903474055942,266.9082856669426,0.0010788921499624,0.02166698127985,-0.9981342554092408,0.0570739135146141,-0.0023803669939906,-0.028732442068485,0.0201850945929639,-0.0068115703761577,-0.0054943575523793,-0.0011876354692503,-0.4570737777650357,-0.0590817470289766,-9.801585856676102,10.0,0.0,25,2019-07-09,12:50,R1,2019-07-09 12:50:00.500,-0.1876710535101272
177,0.6,1.399999976158142,57.0,-79.78281267686506,40.4590347655299,266.9104380949736,0.0010868103709071,0.0216744355857372,-0.9981333613395692,0.0570881702005863,-0.0023979074626377,-0.0319746087435451,0.0203485106078572,0.0015122214099392,-0.0025230695027858,0.002246782882139,-0.4580414188653231,-0.0496422487590462,-9.801698123216632,10.0,0.0,25,2019-07-09,12:50,R1,2019-07-09 12:50:00.600,-0.375302278991112
177,0.8,1.2999999523162842,63.0,-79.78281265520921,40.45903469449555,266.91117061370613,0.0011141583090648,0.0217237137258052,-0.9981279373168944,0.0571633130311965,-0.0083636926154568,-0.0271256986032871,0.0204845755448902,-0.0042822794057428,-0.0014461906393989,-0.0082466173917055,-0.4569917705655098,-0.0628799932496622,-9.80043980240822,10.0,0.0,25,2019-07-09,12:50,R1,2019-07-09 12:50:00.800,-1.5013684280810349
177,0.9,1.2999999523162842,67.0,-79.78281270216458,40.45903464931333,266.90713157945873,0.0011249672388657,0.021728241816163,-0.9981261491775512,0.0571914836764335,-0.0018938212238585,-0.0315644371131861,0.0156667686609947,0.0045466683804988,0.0036256490275263,0.0047770533710718,-0.4583841022476554,-0.0610599925601855,-9.800091308355332,10.0,0.0,25,2019-07-09,12:50,R1,2019-07-09 12:50:00.900,-0.3753620058680247
177,1.1,1.399999976158142,66.0,-79.78281270321304,40.45903467865953,266.9088552936316,0.0011134918313473,0.0217227842658758,-0.9981247186660768,0.0572192668914794,-0.0038492324044276,-0.0348330428300171,0.0159088654491763,-0.0063314889557659,-0.0045264940708875,-0.0026502674445509,-0.4606090408936143,-0.0502837796788662,-9.800263216495514,10.0,0.0,25,2019-07-09,12:50,R1,2019-07-09 12:50:01.100,-0.3753620058680247
177,1.2,1.399999976158142,59.0,-79.7828127457785,40.45903457132058,266.9087885587812,0.001164001179859,0.0217689629644155,-0.9981207847595216,0.0572692826390266,0.0016733125565667,-0.0227630906697542,0.0176584709639049,-0.0031831746455281,-0.0013274500379338,-0.0012989221140742,-0.4576176784560085,-0.0544330689730122,-9.801006982326507,10.0,0.0,25,2019-07-09,12:50,R1,2019-07-09 12:50:01.200,0.0
177,1.4,1.399999976158142,58.0,-79.7828127507053,40.45903459101086,266.9106601520777,0.0011666520731523,0.0217798445373773,-0.99811851978302,0.0573047511279583,0.0010807944963591,-0.0259300921621148,0.0177233142995843,0.0012581807095557,-0.0007562008686363,-0.0035407037939876,-0.4612081246823073,-0.0427006353344768,-9.800246844291689,10.0,0.0,25,2019-07-09,12:50,R1,2019-07-09 12:50:01.400,0.1876909675246997
177,1.5,1.5,58.0,-79.7828127685503,40.459034525471424,266.91052492403986,0.0011688388185575,0.0217734742909669,-0.9981162548065186,0.0573460161685943,-0.0007831572079263,-0.0245154147455718,0.0182116457482576,-0.0059358347207307,-0.0032897817436605,-0.0054802712984383,-0.4598941091448069,-0.0451260558189824,-9.799419463276864,10.0,0.0,25,2019-07-09,12:50,R1,2019-07-09 12:50:01.500,0.0
177,1.7,1.5,60.0,-79.78281276711955,40.45903447449584,266.908651684165,0.0011686672223731,0.0217900779098272,-0.9981126189231871,0.0574030689895153,-0.0049054941546047,-0.0251381544173759,0.015465988250271,-0.0067777344956994,-0.0033650619443506,-0.0045398762449622,-0.4584169928357005,-0.0620728856278583,-9.799692528247832,10.0,0.0,25,2019-07-09,12:50,R1,2019-07-09 12:50:01.700,-0.1877009169485836
177,1.8,1.399999976158142,58.0,-79.78281276528614,40.45903449653342,266.9103186621666,0.0011856973869726,0.0217901952564716,-0.9981119632720948,0.0574136227369308,-0.0046091585383859,-0.0282847796798668,0.0155589384111823,0.0007992603932507,0.0029942784458398,-0.0014744488289579,-0.4592780318856239,-0.0485327989747747,-9.800357941389084,10.0,0.0,25,2019-07-09,12:50,R1,2019-07-09 12:50:01.800,-0.5630430088020383
177,2.0,1.399999976158142,57.0,-79.78281280879185,40.45903441155222,266.9083009257317,0.0011868246365338,0.021810807287693,-0.9981088042259216,0.0574612729251384,0.0004057707059677,-0.023876910344793,0.0171312890995587,0.0019677749369293,0.0001952799939317,0.0045054559595882,-0.4577860782667994,-0.0623412682581693,-9.801174212694171,10.0,0.0,25,2019-07-09,12:50,R1,2019-07-09 12:50:02.000,-0.1876610889194386
177,2.1,1.399999976158142,57.0,-79.78281281588234,40.459034457492095,266.9119713797569,0.0011820297222584,0.0218215174973011,-0.9981043934822084,0.0575337037444114,-8.646779298973126e-05,-0.0302520130898067,0.0172588708395059,0.0057275122962892,0.003925647586584,0.004672089125961,-0.4590138108283282,-0.0609054570458829,-9.799904782176018,10.0,0.0,25,2019-07-09,12:50,R1,2019-07-09 12:50:02.100,-0.1876710535101272
177,2.3,1.399999976158142,53.0,-79.7828128327885,40.45903436099103,266.90923272514345,0.0011808536946773,0.021854730322957,-0.9981009364128112,0.0575811117887497,-0.0011053022774897,-0.0225559080652908,0.0148544718282824,-0.002226933138445,-0.0025730272755026,-0.0015832568751648,-0.4596851442754269,-0.0579339385963976,-9.800054470896722,10.0,0.0,25,2019-07-09,12:50,R1,2019-07-09 12:50:02.300,-0.5630131605303866
177,2.4,1.2999999523162842,51.0,-79.78281284792098,40.45903429129861,266.90719853782656,0.0011864226544275,0.0218674130737781,-0.998098373413086,0.0576211549341678,-0.0010943362072674,-0.0217914420173478,0.0161086533938717,0.006734034512192,0.0021070677321404,0.0069755897857248,-0.4585758909210563,-0.0634056625049561,-9.799841632246972,10.0,0.0,25,2019-07-09,12:50,R1,2019-07-09 12:50:02.400,0.0
177,2.6,1.2999999523162842,50.0,-79.78281285038261,40.45903433339228,266.91064150327446,0.001209596870467,0.0218712873756885,-0.9980947971343994,0.0576811768114566,-0.0019245181892618,-0.027885039500142,0.0161719156282738,0.0047368835657835,0.0050907009281218,0.00490034930408,-0.4611068216711283,-0.0459802883444354,-9.800112943053248,10.0,0.0,25,2019-07-09,12:50,R1,2019-07-09 12:50:02.600,-0.3752823801433442
177,2.71,1.2999999523162842,51.0,-79.78281286425651,40.45903426069368,266.90837247365715,0.0012101597385481,0.0218651834875345,-0.9980918169021606,0.0577338375151157,-0.0025444468420311,-0.0251273555775352,0.0171028578034815,-0.0017013179603964,-0.000555919308681,0.0015639895573258,-0.459346188493073,-0.0619378926046192,-9.801268352866174,10.0,0.0,25,2019-07-09,12:50,R1,2019-07-09 12:50:02.710,-0.1876312254809823
177,2.9,1.2000000476837158,53.0,-79.78281286457205,40.459034282487,266.91020726108553,0.0012095300480723,0.0218614563345909,-0.9980912804603576,0.0577460043132305,-0.0031205911756465,-0.0279796066664611,0.0172791407766397,-0.0023974957875907,0.0010529445717111,-0.0044699143618345,-0.4592439353093506,-0.0417416873993352,-9.80109644472599,10.0,0.0,25,2019-07-09,12:50,R1,2019-07-09 12:50:02.900,0.0
177,3.01,1.2000000476837158,54.0,-79.78281285970567,40.45903421570254,266.90783346885445,0.0012136002769693,0.0218658410012722,-0.998088002204895,0.0578006617724895,-0.0063260116287708,-0.02480813066065,0.015030223285701,-0.0051801949739456,-0.0029679157305508,-0.0106517188251018,-0.4611186257377267,-0.0484887758363038,-9.799973779320716,10.0,0.0,25,2019-07-09,12:50,R1,2019-07-09 12:50:03.010,-0.1876810029340111
177,3.2,1.100000023841858,54.0,-79.78281290522679,40.459034143466894,266.9073364406228,0.0012278144713491,0.0218882765620946,-0.9980844259262084,0.0578528232872486,0.0001433802952698,-0.0234557511176564,0.0167423544345402,0.001582343596965,-0.0016966433031484,0.0045132664963603,-0.4600068873167038,-0.0538907123124226,-9.800478394031526,10.0,0.0,25,2019-07-09,12:50,R1,2019-07-09 12:50:03.200,0.0
177,3.3,1.0,59.0,-79.78281290849587,40.459034164010646,266.9091162055135,0.0012311990140005,0.0219018813222646,-0.998081922531128,0.0578917302191257,-0.0006011933531914,-0.0264584653797648,0.0167168504713169,-0.0042510479688644,0.0010036407038569,-0.0052687525749206,-0.4615023858100176,-0.0409005334507674,-9.798290365934372,10.0,0.0,25,2019-07-09,12:50,R1,2019-07-09 12:50:03.300,-0.3753221778388797
177,3.5,1.0,59.0,-79.78281293897727,40.459034071150754,266.906834815383,0.0012449038913473,0.0219255574047565,-0.998079001903534,0.0579325854778289,0.003525828023888,-0.0208140058366612,0.0176462596933815,0.0083685256540775,0.003042954718694,0.0042749345302581,-0.4589684583619237,-0.0606185871642082,-9.79976912677288,10.0,0.0,25,2019-07-09,12:50,R1,2019-07-09 12:50:03.500,0.0
177,3.6,0.8999999761581421,63.0,-79.78281295164739,40.45903411022079,266.9105760648251,0.0012861876748502,0.0219152178615331,-0.9980754852294922,0.0579946376383304,0.0019918197992335,-0.0265435123274193,0.0177896239300921,-0.0009269246365875,-0.0007856112788431,-0.0024527395144104,-0.4605953364819289,-0.0462305583106353,-9.800308240056037,10.0,0.0,25,2019-07-09,12:50,R1,2019-07-09 12:50:03.600,0.0
177,3.8,0.8999999761581421,66.0,-79.78281293708623,40.45903403673235,266.9085282876492,0.001253847265616,0.0219288822263479,-0.9980735778808594,0.0580242425203323,-0.0016762151953897,-0.02396112372171,0.018153930308565,0.0061635477468371,0.0028103392105549,0.006217885762453,-0.4575806582719088,-0.0633938036207109,-9.799821166992189,10.0,0.0,25,2019-07-09,12:50,R1,2019-07-09 12:50:03.800,-0.7506842140405162
177,3.9,0.8000000119209291,70.0,-79.7828129441711,40.459033959687794,266.9080238907933,0.001260407269001,0.0219676867127418,-0.9980697035789492,0.0580749884247779,-0.001212310235484,-0.0191707500693384,0.0186184020827894,0.0054954653605818,0.0009357596863992,0.0041587678715586,-0.4588394176214934,-0.0536474544368684,-9.800818701982498,10.0,0.0,25,2019-07-09,12:50,R1,2019-07-09 12:50:03.900,-0.1876810029340111
177,4.1,0.8000000119209291,70.0,-79.78281294485906,40.45903397743336,266.90997543627026,0.0012301302049309,0.0219685100018978,-0.998066246509552,0.0581358894705772,-0.0019736655138138,-0.0219289614306156,0.0186374531684847,0.0017973019275814,-0.0015267737908288,-0.0001832239504437,-0.4586563632264734,-0.0632740727439522,-9.800379576086998,10.0,0.0,25,2019-07-09,12:50,R1,2019-07-09 12:50:04.100,-0.3753620058680247
177,4.2,0.8999999761581421,76.0,-79.78281294786531,40.459033894136006,266.9100188806057,0.0011952097993344,0.0219932589679956,-0.9980624318122864,0.0581924803555011,-0.0011770205229721,-0.0186101557363387,0.0190460067744306,0.0046012261882424,0.0043845158070325,0.0068103927187621,-0.4598779196664691,-0.062354497583583,-9.80065848827362,10.0,0.0,25,2019-07-09,12:50,R1,2019-07-09 12:50:04.200,0.0
177,4.4,1.0,76.0,-79.78281294822864,40.4590339103416,266.912013959825,0.001196609577164,0.0220142472535371,-0.9980597496032716,0.0582308024168014,-0.002787699107406,-0.0211705318736205,0.0191392234320339,-0.0042397533543407,-0.0023628093767911,-0.0042369379661977,-0.4607207592576743,-0.0529501054482534,-9.80072631597519,10.0,0.0,25,2019-07-09,12:50,R1,2019-07-09 12:50:04.400,1.3137670205380922
177,4.5,1.2000000476837158,81.0,-79.78281292826,40.45903384866608,266.9125550135374,0.0012065855553373,0.0220163837075233,-0.9980552196502686,0.0583069659769535,-0.0050503539105793,-0.0208009492363113,0.0192475588834797,0.0010734647512435,-0.000224241244723,0.0044118179939687,-0.4580670004338026,-0.0646814564382657,-9.800104172229767,10.0,0.0,25,2019-07-09,12:50,R1,2019-07-09 12:50:04.500,0.0
177,4.71,1.399999976158142,84.0,-79.78281291612956,40.45903376598144,266.9133229746819,0.0012145631480962,0.0220254845917224,-0.9980523586273192,0.0583516769111156,-0.0032906922303172,-0.016407634171257,0.0194954491079136,0.0055088507942855,0.0018753969343379,0.0015492074890062,-0.4603053876757622,-0.0397894117282703,-9.799799532294276,10.0,0.0,25,2019-07-09,12:50,R1,2019-07-09 12:50:04.710,-0.1877009169485836
177,4.8,1.5,85.0,-79.78281291372414,40.459033779915416,266.91535191679003,0.0012146370718255,0.022029647603631,-0.9980506896972656,0.0583794936537742,-0.0049061239026813,-0.018743882948766,0.0195811757748752,-0.0068385954946279,-0.0011750744888558,-0.006194045767188,-0.4612632712349296,-0.0470316405594348,-9.800225794315338,10.0,0.0,25,2019-07-09,12:50,R1,2019-07-09 12:50:04.800,-0.9383054445972028
177,5.0,1.7000000476837158,84.0,-79.78281290551561,40.459033681599,266.9141086831093,0.0012103308690711,0.022045973688364,-0.99804949760437,0.0583936125040054,-0.0021575839825419,-0.0135512814661645,0.0196560598765567,0.0061729191802442,0.0023781789932399,0.0041851629503071,-0.4585437312349677,-0.0625265747448429,-9.801428566575051,10.0,0.0,25,2019-07-09,12:50,R1,2019-07-09 12:50:05.000,0.7508435261570959
177,5.1,1.7999999523162842,80.0,-79.78281290260422,40.459033708820414,266.9182002439499,0.0011986735044047,0.0220302008092403,-0.9980466365814208,0.0584481917321682,-0.0031036686421327,-0.019067963829821,0.0198585295145002,0.0069194221869111,0.0030980031006038,0.002201777184382,-0.4612609323486686,-0.0569281809590756,-9.801509258151055,10.0,0.0,25,2019-07-09,12:50,R1,2019-07-09 12:50:05.100,-0.1876810029340111
177,5.3,1.7999999523162842,79.0,-79.78281288425184,40.45903362490094,266.91718403691056,0.001200997037813,0.0220202002674341,-0.9980452060699464,0.0584760084748268,-0.003720231409404,-0.0180249396123217,0.0196351579460345,-0.0066296570003032,-0.0013443735660985,-0.0061597931198775,-0.4598248196393251,-0.0556615187320858,-9.800144518017769,10.0,0.0,25,2019-07-09,12:50,R1,2019-07-09 12:50:05.300,-0.3753221778388797
177,5.4,2.0,75.0,-79.78281284697087,40.459033563378135,266.91853648865225,0.001211215625517,0.0220193453133106,-0.998041331768036,0.0585430674254894,-0.0065268744154312,-0.0201235661368041,0.0194149686004997,-0.0039139972068369,-0.0038819091860204,-0.0023583469446748,-0.4627858861908317,-0.0570309640467166,-9.798967473506927,10.0,0.0,25,2019-07-09,12:50,R1,2019-07-09 12:50:05.400,-0.1876610889194386
177,5.61,2.0,71.0,-79.78281283807088,40.45903360282526,266.92263174498083,0.0011979142436757,0.0220088772475719,-0.9980370998382568,0.0586196333169937,-0.0072474253040339,-0.0255504586902209,0.0195297722593293,-0.0040642297826707,-0.0051778750494122,-0.0031933810096234,-0.4591113131493329,-0.0530958747072145,-9.800292452573776,10.0,0.0,25,2019-07-09,12:50,R1,2019-07-09 12:50:05.610,-0.1876610889194386
177,5.71,2.200000047683716,65.0,-79.78281281098997,40.45903350337653,266.92219757729765,0.0012003107694908,0.0220347754657268,-0.9980355501174928,0.0586347170174121,-0.0054837641492488,-0.0201292714358894,0.0196162549873205,0.0021108854562044,0.0001023070435621,0.000997160677798,-0.4590028107538819,-0.0496346108336001,-9.800205913782117,10.0,0.0,25,2019-07-09,12:50,R1,2019-07-09 12:50:05.710,-0.1876810029340111
177,5.9,2.5,70.0,-79.78281280761476,40.45903352092028,266.9242574616671,0.0012118824524804,0.0220532324165105,-0.9980332851409912,0.0586665607988834,-0.0061174504231043,-0.0225680989589487,0.0197281324414296,0.0011201194720342,-0.003623406169936,0.0048659485764801,-0.459089641906321,-0.0628530458081513,-9.799753924012183,10.0,0.0,25,2019-07-09,12:50,R1,2019-07-09 12:50:05.900,-0.3753421070202569
177,6.0,2.400000095367432,69.0,-79.7828127446232,40.45903345026972,266.9260245084167,0.0011940592667087,0.0220669545233249,-0.9980310201644896,0.0587016642093658,-0.0087735726592891,-0.0225599984863085,0.0195582125210642,-0.0009241582592949,-0.0010199323296546,0.0058781546540558,-0.4573246964067221,-0.0632555672200396,-9.799675571322444,10.0,0.0,25,2019-07-09,12:50,R1,2019-07-09 12:50:06.000,0.0
177,6.2,2.5999999046325684,62.0,-79.78281273740973,40.459033470732415,266.92809095674755,0.0012138227466493,0.0220683813095092,-0.9980289936065674,0.0587337128818035,-0.0094722217948619,-0.0252547124504767,0.0195980019495441,-0.0049352962523698,0.0005950083723291,-0.0043940949253737,-0.4607083704695106,-0.0429261094518005,-9.799814150333406,10.0,0.0,25,2019-07-09,12:50,R1,2019-07-09 12:50:06.200,-0.5630729025741039
177,6.3,2.5,66.0,-79.78281273424327,40.45903335965191,266.92961884731056,0.0012197446776553,0.0220745522528886,-0.9980242252349854,0.0588132105767726,-0.0021937951322362,-0.0198119513679668,0.0198021254573909,-0.0034650273155421,-0.0009654082241468,-0.0086638508364558,-0.4610039472207427,-0.0393228267598897,-9.800036344528197,10.0,0.0,25,2019-07-09,12:50,R1,2019-07-09 12:50:06.300,-0.9382556974777836
177,6.5,2.400000095367432,67.0,-79.78281268541723,40.45903331254189,266.931725007236,0.0012165078660473,0.0220513604581356,-0.9980213046073914,0.0588708743453025,-0.0037202649613266,-0.0247181022527545,0.0197354100787717,-0.0048305680975317,-0.0006544837378896,-0.0105814132839441,-0.4576311270520092,-0.0610864877561107,-9.799733458757403,10.0,0.0,25,2019-07-09,12:50,R1,2019-07-09 12:50:06.500,1.8767105351012945
177,6.6,2.299999952316284,69.0,-79.78281268566249,40.459033334178216,266.93380778723963,0.0012045548064634,0.0220605041831731,-0.9980194568634032,0.0588995292782783,-0.002832531804463,-0.0274970493610602,0.0196299688622497,0.006154740229249,0.0028746717143803,0.0051634442061185,-0.4599856911599636,-0.0636618664814159,-9.7983067381382,10.0,0.0,25,2019-07-09,12:50,R1,2019-07-09 12:50:06.600,0.7506842140405162
177,6.8,2.5,69.0,-79.78281259224293,40.45903325732893,266.93590929055216,0.0011640497250482,0.0220780670642852,-0.9980165362358092,0.0589425452053546,-0.0084780282708569,-0.0245236375639354,0.0197207579902518,0.0054973419755697,0.0058302874676883,0.0028294171206653,-0.4606465361639858,-0.0404878113884478,-9.799324738383293,10.0,0.0,25,2019-07-09,12:50,R1,2019-07-09 12:50:06.800,-0.7506443556777618
177,6.9,2.5,66.0,-79.78281254153781,40.45903316190328,266.93590695852043,0.0011716709705069,0.0220828521996736,-0.9980145692825316,0.0589754916727542,-0.0076905727150335,-0.0205075335052806,0.0195403230836139,-0.0044444631785154,-0.0074375243857502,-0.0017081463010981,-0.460493375658989,-0.0535512311942875,-9.799017174839976,10.0,0.0,25,2019-07-09,12:50,R1,2019-07-09 12:50:06.900,1.313697374570905
177,7.1,2.5,72.0,-79.78281253592866,40.459033181572494,266.9379584535361,0.0011839269427582,0.0220661368221044,-0.998012900352478,0.0590084344148635,-0.0073414390588529,-0.0232796307830526,0.019571167350945,0.0022651699837297,-0.0017353971488773,0.0044516534544527,-0.4564803950116039,-0.0530970715591684,-9.8006538105011,10.0,0.0,25,2019-07-09,12:50,R1,2019-07-09 12:50:07.100,2.626976661003424
177,7.2,2.299999952316284,79.0,-79.78281249457682,40.45903308147414,266.94006564164164,0.0012040684232488,0.0220710448920726,-0.9980093836784364,0.0590664409101009,-0.0026853978256538,-0.0183424257651259,0.0197447642435778,-0.0037773540243506,-0.0015063865575939,-0.0028449564706534,-0.4594542523473502,-0.0421059917751699,-9.799499570131305,10.0,0.0,25,2019-07-09,12:50,R1,2019-07-09 12:50:07.200,2.251694280860077
177,7.4,2.200000047683716,78.0,-79.78281249460844,40.459033097536405,266.9421329989433,0.0011854205513373,0.0220638718456029,-0.9980077147483826,0.0590964667499065,-0.0021679285359908,-0.0209768980224408,0.0198740275437304,0.0068744597956538,0.0043508093804121,0.0045244945213198,-0.4577098451927305,-0.0635908959014341,-9.799897765517237,10.0,0.0,25,2019-07-09,12:50,R1,2019-07-09 12:50:07.400,3.001621792680452
177,7.5,1.8999999761581416,61.0,-79.78281244731434,40.45903301148503,266.94423361563685,0.0011902709957212,0.0220650807023048,-0.9980061054229736,0.0591234639286994,0.0006159019001296,-0.0195630276502316,0.0198796492311005,0.0031102048233151,0.0059779533185064,0.003738627070561,-0.4582090512290597,-0.0565010144468396,-9.80071637570858,10.0,0.0,25,2019-07-09,12:50,R1,2019-07-09 12:50:07.500,5.252838137190793
177,7.7,1.8999999761581416,71.0,-79.78281235528618,40.45903294128093,266.94653130018713,0.0011930220061913,0.0220753028988838,-0.9980020523071288,0.0591877959668636,-0.0045006991557973,-0.0207100577265782,0.0197910026380964,0.0002342970838071,-0.0014790879795327,-0.0050224987789988,-0.4590309870243073,-0.0616226454544812,-9.799953314065936,10.0,0.0,25,2019-07-09,12:50,R1,2019-07-09 12:50:07.700,2.064381588611424
177,7.8,2.0,81.0,-79.78281235339516,40.45903295929193,266.9486126496792,0.0011910011526197,0.0221066083759069,-0.9979992508888244,0.0592229962348938,-0.0044789996185285,-0.0231616625235604,0.019850533006661,0.0043873074464499,0.002656533382833,0.0028440095484256,-0.4579590096697211,-0.0633296121563762,-9.799649258852003,10.0,0.0,25,2019-07-09,12:50,R1,2019-07-09 12:50:07.800,1.6887707106450576
177,8.0,1.8999999761581416,83.0,-79.78281229856644,40.45903289973986,266.95086688244345,0.0011813967721536,0.0221077669411897,-0.997997224330902,0.0592578873038291,-0.0008151858621255,-0.0269224941547448,0.0193664274536834,0.0089830951765179,0.0024455769453197,0.0048454902134835,-0.4604174349457026,-0.0399162643309682,-9.799093188643456,10.0,0.0,25,2019-07-09,12:50,R1,2019-07-09 12:50:08.000,2.4393354709317503
177,8.1,2.0999999046325684,85.0,-79.78281230026282,40.45903292324643,266.9529317959547,0.001187267829664,0.022113848477602,-0.9979949593544006,0.0592939928174018,-0.0024999966908528,-0.029167211871501,0.0193977886313716,-0.0053623979911208,-0.0051303249783813,-0.0040334183722734,-0.4623909067735077,-0.0512066895794123,-9.7990066498518,10.0,0.0,25,2019-07-09,12:50,R1,2019-07-09 12:50:08.100,1.87611311466412
177,8.3,2.0,93.0,-79.78281220879684,40.45903279602248,266.95332721316817,0.0011801281943917,0.0221372414380312,-0.9979931712150574,0.0593151859939098,-0.0020312302193087,-0.0199969756546415,0.0195416740260634,0.0047753313556313,0.0039598578587174,0.0037350025959312,-0.4587457159906626,-0.053004776914604,-9.79912476360798,10.0,0.0,25,2019-07-09,12:50,R1,2019-07-09 12:50:08.300,1.3134185783668906
177,8.41,1.7999999523162842,93.0,-79.78281210182594,40.45903271818769,266.9574668004513,0.0011964390287175,0.0221463050693273,-0.9979891777038574,0.0593777000904083,-0.0052928373500675,-0.0193488866114804,0.0215932077466121,0.0010286360047757,0.0036886190064251,-0.0018274205503985,-0.4592048320546746,-0.0447284177457913,-9.799179142713546,10.0,0.0,25,2019-07-09,12:50,R1,2019-07-09 12:50:08.410,2.064381588611424
177,8.6,1.7000000476837158,98.0,-79.78281209809306,40.459032736379584,266.9597222402096,0.0011883714469149,0.0221475139260292,-0.9979873299598694,0.0594100020825862,-0.0056426673315661,-0.0218354156261828,0.021621697536207,0.0033980018924921,0.0019399618031457,0.0029600432608276,-0.4572358552739024,-0.0645634888624772,-9.799012497067451,10.0,0.0,25,2019-07-09,12:50,R1,2019-07-09 12:50:08.600,1.8767105351012945
177,8.71,1.600000023841858,95.0,-79.78281197907043,40.459032650301616,266.9629630639553,0.0011860543163493,0.0221800059080123,-0.997982621192932,0.0594763793051242,-0.0078757908103916,-0.0194962338993125,0.0214406213023716,0.0044706785120069,0.002586011076346,0.0055322237312793,-0.4583301982283592,-0.0648242929531261,-9.800176677703858,10.0,0.0,25,2019-07-09,12:50,R1,2019-07-09 12:50:08.710,1.313697374570905
177,8.91,1.600000023841858,99.0,-79.78281197184712,40.45903266741112,266.9651912047863,0.0011837722267955,0.0221820026636123,-0.9979804754257202,0.059511050581932,-0.0094334550422278,-0.0215655791065107,0.0213576092943775,-0.0082651758566498,-0.0029668149072676,-0.0033364740666002,-0.4616432671621442,-0.0449047250021249,-9.799549271464349,10.0,0.0,25,2019-07-09,12:50,R1,2019-07-09 12:50:08.910,1.875913974518396
177,9.0,1.600000023841858,108.0,-79.78281189298382,40.45903258286349,266.968597863555,0.0011918785749003,0.0221852101385593,-0.9979764223098756,0.0595780238509178,-0.0035235735386354,-0.020950336735886,0.0207871248931956,-0.0041147349402308,-0.0029373615980148,-0.004791407380253,-0.4594321791082621,-0.0554561444185674,-9.800580720305442,10.0,0.0,25,2019-07-09,12:50,R1,2019-07-09 12:50:09.000,2.0641625344511265
177,9.2,1.5,111.0,-79.78281179818481,40.45903250059217,266.9724173291922,0.0011986393947154,0.0222127214074134,-0.997973084449768,0.059622973203659,-1.0242377257052931e-05,-0.0205886567058896,0.0203921512073809,-0.0002314180019311,-0.0031442029867321,0.001538389828056,-0.4580983195826411,-0.050676694298163,-9.801190584897997,10.0,0.0,25,2019-07-09,12:50,R1,2019-07-09 12:50:09.200,2.0641625344511265
177,9.3,1.2000000476837158,102.0,-79.78281180081441,40.45903251839369,266.97455420041086,0.0011946749873459,0.0222186595201492,-0.9979711174964904,0.0596541762351989,-0.0008370212056323,-0.0229928028412459,0.0204647915391921,-0.0036864914000034,-0.0017280472675338,-0.0038551392499357,-0.459948451705277,-0.0416202434711158,-9.800439217686652,10.0,0.0,25,2019-07-09,12:50,R1,2019-07-09 12:50:09.300,1.8764119007167308
177,9.5,1.2000000476837158,103.0,-79.78281170332959,40.45903244976112,266.98067158901694,0.0011816731421276,0.0222361143678426,-0.9979681372642516,0.0596979781985282,-4.583101623035999e-06,-0.0237711600636636,0.023023976026496,-0.0054110269993543,-0.0030543089378625,-0.0084525281563401,-0.4589191590249538,-0.0631281938496977,-9.799718840718269,10.0,0.0,25,2019-07-09,12:50,R1,2019-07-09 12:50:09.500,1.8765113949555696
177,9.61,1.0,97.0,-79.78281170779894,40.45903246997622,266.98308492147925,0.0011991818901151,0.0222410205751657,-0.9979663491249084,0.0597257018089294,0.0008579046214553,-0.0259411189148835,0.0230730992653829,0.0066672600805759,0.0037337040994316,0.003023280063644,-0.4565754488110543,-0.0541806656867265,-9.799568567276,10.0,0.0,25,2019-07-09,12:50,R1,2019-07-09 12:50:09.610,2.438947049063356
177,9.8,1.0,97.0,-79.78281157595718,40.45903237928313,266.98551649296286,0.0011868756264448,0.0222551114857196,-0.9979633688926696,0.0597711503505706,-0.0016512004996016,-0.0223162170616531,0.0219401015422532,-0.0018881154246628,-0.0020920780953019,-0.0009464152390137,-0.4593183045834303,-0.0645260712504386,-9.799556872844695,10.0,0.0,25,2019-07-09,12:50,R1,2019-07-09 12:50:09.800,0.7504452458656465
177,9.9,1.2999999523162842,96.0,-79.78281142692045,40.45903229199122,266.9905289604664,0.0011920053511857,0.0222692750394344,-0.9979603290557858,0.0598165169358253,-0.0056470473627995,-0.0176580001543884,0.0214807386968574,0.0073366239666938,0.0026074980851262,0.0057259588502347,-0.4575832895189524,-0.0623017447348684,-9.79855641424656,10.0,0.0,25,2019-07-09,12:50,R1,2019-07-09 12:50:09.900,0.0
177,10.11,1.5,97.0,-79.7828114220042,40.45903230858883,266.992764924407,0.001202083309181,0.0222687106579542,-0.9979575276374816,0.0598623305559158,-0.0073054345705936,-0.0199462212938187,0.0215837189374086,-0.0090657444670796,-0.0029090167954564,-0.0078172199428081,-0.4620130304619671,-0.0500038396613672,-9.800292452573776,10.0,0.0,25,2019-07-09,12:50,R1,2019-07-09 12:50:10.110,0.3752425521141993
177,10.21,1.8999999761581416,104.0,-79.78281125483225,40.45903221468755,266.9982299848795,0.0011936863884329,0.0223015192896127,-0.9979528188705444,0.0599285177886486,-0.0099223235746066,-0.0162297842721442,0.0214691143945835,-0.000709087064024,-0.0051515907980501,-0.0005979840061627,-0.4594831960648298,-0.0611468830984085,-9.80012346804142,10.0,0.0,25,2019-07-09,12:50,R1,2019-07-09 12:50:10.210,0.1876312254809823
177,10.4,2.0999999046325684,110.0,-79.78281110433599,40.45903213320627,267.0059403523207,0.0011674469569697,0.0223203394562006,-0.9979482293128968,0.0599980056285858,-0.0084281041284731,-0.0163001530559793,0.0248524563873068,0.0058001447468996,-0.0001484103704569,0.0058268494904041,-0.4583883780241013,-0.0434170745685696,-9.799808303117752,10.0,0.0,25,2019-07-09,12:50,R1,2019-07-09 12:50:10.400,-0.1876909675246997
177,10.5,2.299999952316284,109.0,-79.78281109625675,40.45903214878236,267.0085119947195,0.001183507614769,0.0223101638257503,-0.9979469776153564,0.0600229203701019,-0.0098151161364818,-0.0184427424305474,0.0250095578748932,-0.0054413620382547,-0.0058282599784433,-0.0101314289495348,-0.4599735216423869,-0.0407630644971504,-9.801013414263728,10.0,0.0,25,2019-07-09,12:50,R1,2019-07-09 12:50:10.500,0.1877009169485836
177,10.7,2.799999952316284,110.0,-79.78281108839185,40.45903216530322,267.01110710644724,0.001196986879222,0.0223249625414609,-0.9979437589645386,0.0600710287690162,-0.0089823518307073,-0.0205228292641501,0.0251148001987237,0.0077858222648501,0.0020936387591063,0.0048502748832106,-0.455577621459961,-0.0627331322059035,-9.800406473279,10.0,0.0,25,2019-07-09,12:50,R1,2019-07-09 12:50:10.700,0.1876810029340111
177,10.8,2.900000095367432,109.0,-79.7828109194336,40.45903209867065,267.01662534916403,0.0012124475324526,0.0223691519349813,-0.9979398846626282,0.060118269175291,-0.0111081090131126,-0.0209462653536505,0.0238444501278728,0.0065573346801102,0.0016098843188956,0.0050323400646448,-0.4586706889048219,-0.0605664373096078,-9.80029069840908,10.0,0.0,25,2019-07-09,12:50,R1,2019-07-09 12:50:10.800,0.0
177,11.01,3.0,112.0,-79.78281077690829,40.45903199920434,267.0198232575655,0.0012207319959998,0.0223934464156627,-0.997937560081482,0.0601479150354862,-0.0107546478752819,-0.0157845976723503,0.0230886431610954,-0.0061511769890785,-0.005544354673475,-0.0071804551407694,-0.462905790656805,-0.0434052613656967,-9.800474885702132,10.0,0.0,25,2019-07-09,12:50,R1,2019-07-09 12:50:11.010,0.0
177,11.1,3.0999999046325684,113.0,-79.78281075736061,40.4590320307452,267.02462269806864,0.0012034699320793,0.0224038176238536,-0.9979328513145448,0.0602213665843009,-0.0114659455871394,-0.0197688469766706,0.0232234663312689,-0.0066720652393996,-0.0065445327199995,-0.0029849696438759,-0.4629727412760258,-0.0448990650800988,-9.799749830961224,10.0,0.0,25,2019-07-09,12:50,R1,2019-07-09 12:50:11.100,-0.3753221778388797
177,11.3,3.2000000476837163,117.0,-79.78281060988607,40.459031927399735,267.0277157171965,0.0012136549921706,0.0224461928009986,-0.9979299306869508,0.0602548569440841,-0.0086383338937094,-0.0146948332123247,0.0224270453577109,0.0070241498760879,0.0025196298956871,0.0043356055393815,-0.4582766962051392,-0.0637713464582339,-9.799429988265038,10.0,0.0,25,2019-07-09,12:50,R1,2019-07-09 12:50:11.300,-0.3753620058680247
177,11.4,3.2000000476837163,124.0,-79.78281045665406,40.45903184824757,267.0329118117094,0.0012375254882499,0.0224869102239608,-0.997925341129303,0.0603151693940162,-0.0072470083367594,-0.0146440441792304,0.0214512671074049,0.0070597054436802,0.0046540731564164,0.0029042901005595,-0.4573698661476374,-0.0642066168459132,-9.799681418538093,10.0,0.0,25,2019-07-09,12:50,R1,2019-07-09 12:50:11.400,-0.1876909675246997
177,11.6,3.0,127.0,-79.78281044939844,40.45903186215364,267.03513049030306,0.0012511743698269,0.0224926993250846,-0.9979223608970642,0.0603614896535873,-0.0089123040721134,-0.0164301173789133,0.0214554053221431,-0.0065268967300653,-0.0020284710917621,-0.010645642876625,-0.459768357463181,-0.0447479419643059,-9.798192132711412,10.0,0.0,25,2019-07-09,12:50,R1,2019-07-09 12:50:11.600,1.689666704799576
177,11.7,2.799999952316284,129.0,-79.78281029927108,40.45903179704837,267.04059716010096,0.0012521244352683,0.0224866922944784,-0.9979177117347716,0.0604402758181095,-0.0083461603152576,-0.0172185459409181,0.0211898206888843,-0.0062418873421847,-0.0035680634900927,-0.0084123462438583,-0.4573028058931232,-0.0625582182314247,-9.799897765517237,10.0,0.0,25,2019-07-09,12:50,R1,2019-07-09 12:50:11.700,0.0
177,11.9,2.5999999046325684,123.0,-79.78281029265493,40.45903181246208,267.04280356013777,0.0012512013781815,0.0224920064210891,-0.997916042804718,0.0604663379490375,-0.0072463216181741,-0.0191461385536697,0.0212826841272273,0.0092119760811328,0.0044445772655308,0.0057706139050424,-0.4582995734363794,-0.0603041668469086,-9.80027958869934,10.0,0.0,25,2019-07-09,12:50,R1,2019-07-09 12:50:11.900,-0.3753819350494018
177,12.0,2.400000095367432,121.0,-79.78281011935313,40.45903172325158,267.04821709239485,0.0012087315553799,0.0224642883986234,-0.9979121685028076,0.0605416633188724,-0.0093521896516936,-0.0143866735410596,0.0213488079008866,0.0068755066022276,0.0047766701318323,0.003914663568139,-0.4570901499688626,-0.061733902436681,-9.800470207929614,10.0,0.0,25,2019-07-09,12:50,R1,2019-07-09 12:50:12.000,-0.3753421070202569
177,12.2,2.5,122.0,-79.78281010944329,40.45903173646385,267.0504242076874,0.0012036518892273,0.022469101473689,-0.9979098439216614,0.0605782754719257,-0.0112562556503835,-0.016070147751256,0.0213611843827587,-0.0116534400731325,-0.0019981435034424,-0.0088847838342189,-0.4600653594732285,-0.0466260082460939,-9.79986268222332,10.0,0.0,25,2019-07-09,12:50,R1,2019-07-09 12:50:12.200,0.0
177,12.3,2.0,117.0,-79.78280995438422,40.459031690949175,267.0559379502535,0.0012113016564399,0.0224776212126016,-0.9979069828987122,0.0606222748756408,-0.0100162122296467,-0.0207087124478401,0.020669541699501,-0.0110658593475818,-0.0046715750358998,-0.0092495372518897,-0.4598400589451194,-0.0456574854953214,-9.798533610105515,10.0,0.0,25,2019-07-09,12:50,R1,2019-07-09 12:50:12.300,-0.5630131605303866
177,12.5,2.200000047683716,116.0,-79.78280979746783,40.45903158354212,267.0614379241467,0.0012152435956522,0.0224851258099079,-0.9979053735733032,0.0606455393135547,-0.0068835714297358,-0.0143506316735062,0.0242951659370091,0.0070503121241927,0.0029643038287758,0.0045585972256958,-0.4576551006361842,-0.0618216472165659,-9.799131195545195,10.0,0.0,25,2019-07-09,12:50,R1,2019-07-09 12:50:12.500,-0.1876610889194386
177,12.6,2.0999999046325684,116.0,-79.78280979057622,40.4590315969398,267.063942496419,0.0012236298061907,0.0224769879132509,-0.9979038238525392,0.0606747381389141,-0.008591166995009,-0.0160020269821803,0.0244040546901183,-0.0054497504606843,-0.0061520035378634,-0.0061098500154912,-0.4610330736637116,-0.0441721876524388,-9.799818243384363,10.0,0.0,25,2019-07-09,12:50,R1,2019-07-09 12:50:12.600,0.1876909675246997
177,12.81,2.400000095367432,114.0,-79.78280963647566,40.459031524826976,267.0698199465275,0.0012075547128915,0.0224676169455051,-0.9979005455970764,0.0607314556837081,-0.0081503383522273,-0.0147565486439928,0.0235678990553845,-0.0088305445387959,-0.0061626336537301,-0.0069832233712077,-0.4626974105089903,-0.0433066489873454,-9.7990335470438,10.0,0.0,25,2019-07-09,12:50,R1,2019-07-09 12:50:12.810,-0.1876212760570984
177,12.9,2.799999952316284,112.0,-79.7828094817525,40.459031444379406,267.0753900601864,0.001221572398208,0.0224888231605291,-0.997895359992981,0.0608082897961139,-0.0071595655948054,-0.0117462316823444,0.0226493177665841,-0.0064180535264313,-0.0002987185143865,-0.010643539018929,-0.4607954939827323,-0.0411041810084134,-9.799344618916512,10.0,0.0,25,2019-07-09,12:50,R1,2019-07-09 12:50:12.900,0.1876511394955548
177,13.11,3.2000000476837163,112.0,-79.78280946969092,40.45903146749049,267.08006673002245,0.001238849828951,0.0224768072366714,-0.9978924989700316,0.0608591586351394,-0.0075816426470852,-0.0154221981319473,0.0228301615191704,-0.0040543866343796,-0.0024017919786274,-0.0088554313406348,-0.4573787831515074,-0.0625579578476026,-9.799977287650108,10.0,0.0,25,2019-07-09,12:50,R1,2019-07-09 12:50:13.110,-0.1876411900716709
177,13.2,3.400000095367432,108.0,-79.7828093481666,40.459031391312095,267.0830280675888,0.0012415484525263,0.0224958546459674,-0.9978893399238586,0.0609046854078769,-0.0017346925933955,-0.0153247079069217,0.021715438795919,0.0059174541383981,0.0019778057467192,0.0040742657147347,-0.4572608886659146,-0.062654770379886,-9.799594879746437,10.0,0.0,25,2019-07-09,12:50,R1,2019-07-09 12:50:13.200,0.0
177,13.4,3.5,102.0,-79.78280934757137,40.45903140465089,267.0852746858597,0.001238765544258,0.0224924497306346,-0.9978873729705808,0.0609378926455974,-0.003040570491648,-0.0171859077903129,0.0217937778471696,-0.0053138700313866,-0.0004476670292206,-0.0078945094719529,-0.4613285773247481,-0.038445127713494,-9.799794269800184,10.0,0.0,25,2019-07-09,12:50,R1,2019-07-09 12:50:13.400,0.1876113114664098
177,13.5,3.700000047683716,95.0,-79.78280919195716,40.45903134298244,267.0880776240826,0.0012365479487925,0.0224900860339403,-0.9978820085525512,0.0610271766781807,-0.0043375720629581,-0.0172775491335832,0.0174628442993629,-0.0057425275444984,-0.0014194886898621,-0.007386234588921,-0.4611651111021638,-0.0421262012142688,-9.799936941862107,10.0,0.0,25,2019-07-09,12:50,R1,2019-07-09 12:50:13.500,-0.9382556974777836
177,13.71,3.700000047683716,93.0,-79.78280919015889,40.4590313583197,267.0899167253972,0.0012384334113448,0.0225072391331195,-0.997879683971405,0.0610586740076541,-0.0035842559622204,-0.0191313882240353,0.0176429225156995,0.0039543528109788,0.0025020162574946,0.0062526725232601,-0.4579202718660236,-0.0678888323809951,-9.800547391176226,10.0,0.0,25,2019-07-09,12:50,R1,2019-07-09 12:50:13.710,-0.5628638281713002
177,13.8,4.099999904632568,94.0,-79.78280904440248,40.45903129373945,267.0951922729016,0.0012430510250851,0.0224958527833223,-0.99787437915802,0.061148889362812,-0.0043376133514619,-0.0180248043285668,0.0184978179910806,0.0064631844870746,0.001606831792742,0.0067324130795896,-0.455361639931798,-0.0641511550918221,-9.80035735666752,10.0,0.0,25,2019-07-09,12:50,R1,2019-07-09 12:50:13.800,-0.7504452458656465
177,14.0,4.199999809265137,92.0,-79.78280890100865,40.45903121893754,267.1004056229592,0.001241800491698,0.022501103579998,-0.997869908809662,0.0612200759351253,-0.0046664487922129,-0.0153900517774492,0.0191877490895803,0.0008037281804718,-0.0007044413941912,0.0077223707921803,-0.4590981203690172,-0.0417952488083392,-9.7996510130167,10.0,0.0,25,2019-07-09,12:50,R1,2019-07-09 12:50:14.000,0.0
177,14.1,4.0,88.0,-79.78280889740438,40.45903123224585,267.10239999437334,0.0012603709474205,0.0224957969039678,-0.9978679418563844,0.0612543523311615,-0.0051659079962724,-0.0169738477902267,0.019261068084693,0.0007997482898645,-0.0007276770193129,-0.0055731302127242,-0.460267417319119,-0.0432729589752853,-9.799662707448006,10.0,0.0,25,2019-07-09,12:50,R1,2019-07-09 12:50:14.100,-0.7505249019239365
177,14.3,3.900000095367432,85.0,-79.7828087327278,40.459031146373256,267.1059386029244,0.0012606747914105,0.0225006192922592,-0.9978657960891724,0.0612877607345581,-0.0079760437808011,-0.0127730703548629,0.019835738659566,-0.000198182198801,-0.0001619671384105,0.0028637186624109,-0.4606605329364538,-0.0646298821689561,-9.799573245048522,10.0,0.0,25,2019-07-09,12:50,R1,2019-07-09 12:50:14.300,-0.375302278991112
177,14.4,3.2000000476837163,82.0,-79.78280861398694,40.45903108554201,267.11123221063616,0.001287366496399,0.0225134957581758,-0.9978618621826172,0.061344638466835,-0.0030465820931337,-0.0139790300140382,0.0199183041531059,-0.0016504938248544,-0.0025667529553174,0.0016435312572866,-0.4572443337365985,-0.0613529152236878,-9.799525882601738,10.0,0.0,25,2019-07-09,12:50,R1,2019-07-09 12:50:14.400,-0.1876411900716709
177,14.6,3.0999999046325684,81.0,-79.78280861266444,40.45903109854464,267.11329104447367,0.0013093408197164,0.0225029084831476,-0.9978606700897216,0.0613679438829422,-0.0028907047601339,-0.016109925017248,0.0200029875649082,-0.0012823860161006,0.0046631023287773,0.0007835184223949,-0.4583281517028809,-0.0458880759263411,-9.800592999458312,10.0,0.0,25,2019-07-09,12:50,R1,2019-07-09 12:50:14.600,0.0
177,14.7,3.299999952316284,82.0,-79.78280845236935,40.4590310357576,267.11872174286844,0.0012979197781533,0.0225074142217636,-0.9978570342063904,0.0614262297749519,-0.0076965445165745,-0.0150802443661377,0.020182363059111,0.0022454559803009,0.0011791180586442,0.0032439427450299,-0.4587351544573903,-0.060174902267754,-9.80005564033985,10.0,0.0,25,2019-07-09,12:50,R1,2019-07-09 12:50:14.700,0.1876710535101272
177,14.9,3.2000000476837163,78.0,-79.78280831789661,40.45903097929254,267.12414424562456,0.0013177489163354,0.0225144531577825,-0.9978524446487428,0.0614980198442936,-0.0063732017113351,-0.0154932303577658,0.0201885311395554,0.0046339435502886,0.0024767757859081,2.586231494206004e-05,-0.4586832969635725,-0.0603251163242384,-9.800571949481965,10.0,0.0,25,2019-07-09,12:50,R1,2019-07-09 12:50:14.900,0.0
177,15.0,3.2000000476837163,86.0,-79.78280831251304,40.45903099376693,267.1262430145741,0.0013209832832217,0.0225234311074018,-0.9978500604629515,0.061532262712717,-0.0066268623799723,-0.0170883118752106,0.020392985751013,-0.0024283141829073,-0.0006848720367997,0.0050953770987689,-0.4582724204286933,-0.0616220744373276,-9.801575916409494,10.0,0.0,25,2019-07-09,12:50,R1,2019-07-09 12:50:15.000,-0.1876610889194386
177,15.2,3.0,83.0,-79.78280818297553,40.45903093831486,267.13126238131525,0.0013067933032289,0.0225577987730503,-0.9978438019752502,0.0616221725940704,-0.0056258664830602,-0.0170927861759331,0.0202266517665079,0.0022132182493805,-0.0001590514875715,0.00517622474581,-0.4569327502325177,-0.0444632784929126,-9.800770170092584,10.0,0.0,25,2019-07-09,12:50,R1,2019-07-09 12:50:15.200,0.0
177,15.3,2.799999952316284,75.0,-79.78280817843735,40.45903095357197,267.1333673193455,0.0013246737653389,0.0225609727203846,-0.9978412389755248,0.0616625808179378,-0.0063954788407789,-0.0187291385530918,0.0202527852180554,0.0005454043857753,-0.0025007061194628,-0.0086738057434558,-0.4601668086647988,-0.0419078031415119,-9.799121255278587,10.0,0.0,25,2019-07-09,12:50,R1,2019-07-09 12:50:15.300,-0.1876610889194386
177,15.5,2.700000047683716,80.0,-79.7828080546165,40.45903089814758,267.13805281066897,0.0013344665057957,0.0225601885467767,-0.9978361129760742,0.0617448538541793,-0.006057985946015,-0.0179939224651083,0.0202382987549049,-0.0062540359795093,-0.0038327889051288,-0.007767014671117,-0.4588768032565713,-0.0625422388873994,-9.799400167465212,10.0,0.0,25,2019-07-09,12:50,R1,2019-07-09 12:50:15.500,0.1876810029340111
177,15.6,2.700000047683716,80.0,-79.78280805117033,40.45903091423678,267.1401662423611,0.0013383583864197,0.022559180855751,-0.9978342652320862,0.061774767935276,-0.0048266452445978,-0.0198418932694071,0.0202929612783382,0.0064234817400574,0.0053568240255117,0.0043912068940699,-0.4592279651015997,-0.0638771856296807,-9.799745737910271,10.0,0.0,25,2019-07-09,12:50,R1,2019-07-09 12:50:15.600,0.0
177,15.8,2.799999952316284,77.0,-79.78280795933506,40.459030840649866,267.1425396099091,0.0013206326402723,0.022568354383111,-0.9978322386741638,0.0618052780628204,-0.0025512230220476,-0.0160676215875518,0.0204217786939761,-0.0054718186147511,-0.002735358197242,-0.0104610612615942,-0.4633038398623467,-0.0496288960939273,-9.800275495648384,10.0,0.0,25,2019-07-09,12:50,R1,2019-07-09 12:50:15.800,-0.5629832667583208
177,15.9,2.799999952316284,78.0,-79.78280785163615,40.4590307840912,267.14693807506563,0.0013390637468546,0.0225940942764282,-0.9978266358375548,0.0618857704102993,-0.0028242045837468,-0.0132699121969132,0.0203714942971638,-0.0047097341157495,-0.0044183926656842,-0.0056707062758505,-0.4600846918299794,-0.0536993576120585,-9.799971440434456,10.0,0.0,25,2019-07-09,12:50,R1,2019-07-09 12:50:15.900,0.0
177,16.1,2.900000095367432,76.0,-79.78280785099597,40.45903079619909,267.14904357934,0.001343525480479,0.02259386703372,-0.9978254437446594,0.0619047507643699,-0.0019389426450847,-0.0151845069057149,0.0204797630362224,0.0027297679334878,0.0045453701168298,0.0030379139352589,-0.4576093461737037,-0.0532998831477016,-9.800641531348226,10.0,0.0,25,2019-07-09,12:50,R1,2019-07-09 12:50:16.100,6.190844771626417
177,16.21,2.5,77.0,-79.78280776952623,40.459030751200274,267.1532821252346,0.0013538659550249,0.0226011704653501,-0.9978193640708924,0.0619997829198837,0.0016482184814751,-0.0166023803774668,0.0205499001592566,0.0005167422350496,0.0014661696041002,0.0052343872375786,-0.4654203126579523,-0.0374470536829903,-9.800546221733091,10.0,0.0,25,2019-07-09,12:50,R1,2019-07-09 12:50:16.210,21.35250681894377
177,16.4,2.299999952316284,80.0,-79.78280777318112,40.459030764708594,267.1553920998573,0.0013466916279867,0.0225998703390359,-0.9978184700012208,0.0620144307613372,0.0007391979485373,-0.0178869032923091,0.0201756764532563,0.0046837544068694,0.0008019543602131,-0.0038846568204462,-0.4603120754286647,-0.073334773723036,-9.798254113197329,10.0,0.0,25,2019-07-09,12:50,R1,2019-07-09 12:50:16.400,6.940514104309443
177,16.5,2.200000047683716,84.0,-79.7828076425087,40.459030722666256,267.1595618321896,0.001335585839115,0.0226239114999771,-0.9978147149086,0.0620660409331321,-0.0031537412115019,-0.0168130389342081,0.0202499391559107,0.0078876204788684,0.0005451669567264,-0.0034453149419277,-0.4552468517795205,-0.0652625600388273,-9.79605322122574,10.0,0.0,25,2019-07-09,12:50,R1,2019-07-09 12:50:16.500,6.751857045221983
177,16.71,2.200000047683716,83.0,-79.78280752500713,40.45903070627525,267.16381426596644,0.0013349258806556,0.0226338151842355,-0.997808575630188,0.0621618665754795,-0.00678006271753,-0.0203834313307581,0.019913086275441,0.007093112450093,0.0018704630201682,-0.0058698737993836,-0.4607230615988374,-0.0346277250093408,-9.802649465203288,10.0,0.0,25,2019-07-09,12:50,R1,2019-07-09 12:50:16.710,6.938303648523969
177,16.8,2.200000047683716,91.0,-79.78280751982244,40.459030724461314,267.16591771388056,0.001316720736213,0.0226298104971647,-0.9978021383285522,0.0622658878564834,-0.0072632238644486,-0.0223062782552106,0.0202277916468381,-0.0055609019473195,-0.0033434422221034,0.0042000077664852,-0.4673844654858113,-0.0525303164776414,-9.79969896018505,10.0,0.0,25,2019-07-09,12:50,R1,2019-07-09 12:50:16.800,6.564653866208118
177,17.0,2.0999999046325684,90.0,-79.78280742071397,40.45903067768689,267.171695043087,0.0013160796370357,0.02262919023633,-0.9977982640266418,0.0623290389776229,-0.0061828326801833,-0.01809674852915,0.0231041131777603,-0.0036804634146392,0.0037535005249083,0.0062577556818723,-0.4641296859830618,-0.0595947945211082,-9.80215069770813,10.0,0.0,25,2019-07-09,12:50,R1,2019-07-09 12:50:17.000,8.626457197870083
177,17.1,1.8999999761581416,95.0,-79.78280741648146,40.45903069395272,267.17409481549265,0.0013163143303245,0.0226544048637151,-0.9977977275848388,0.0623291805386543,-0.0062641455310024,-0.0195429850082269,0.0231427904295291,-0.0028352350927889,-0.0004691817448474,-0.0078792693093419,-0.4560836614295841,-0.0445874358946457,-9.7996375644207,10.0,0.0,25,2019-07-09,12:50,R1,2019-07-09 12:50:17.100,9.564622795660396
177,17.31,1.7999999523162842,95.0,-79.78280730173243,40.4590306147019,267.176074226141,0.0013170661404728,0.0226833093911409,-0.9977911710739136,0.0624223612248897,-0.0072250604845954,-0.0112750009591053,0.0224125317431325,0.0004321385349612,0.0010622871341183,0.0068562668748199,-0.4506001791357994,-0.0567052421579137,-9.800799990892411,10.0,0.0,25,2019-07-09,12:50,R1,2019-07-09 12:50:17.310,401.06625491101295
177,17.4,1.7999999523162842,96.0,-79.78280721169405,40.459030599727456,267.18155004525187,0.0018054310930892,0.0230840630829334,-0.9977935552597046,0.062224805355072,-0.0042947039303644,-0.020475571325806,0.0225378923797775,0.0421332977712154,0.0289089567959308,0.0128384204581379,-0.4609922527894378,-0.0999751267768442,-9.822203139066694,10.0,0.0,25,2019-07-09,12:50,R1,2019-07-09 12:50:17.400,27.508613006050396
177,17.6,1.8999999761581416,100.0,-79.78280720690252,40.45903061531011,267.18398292803766,0.0019645115826278,0.0232803430408239,-0.9977761507034302,0.0624252222478389,-0.0053263309666727,-0.0176732846662363,0.0245528890732514,-0.0090032285079359,-0.0311162825673818,-0.0171492788940668,-0.4929108874127269,-0.0433065393520519,-9.792823804020882,10.0,0.0,25,2019-07-09,12:50,R1,2019-07-09 12:50:17.600,5.81379039568418
177,17.7,1.7999999523162842,99.0,-79.78280709213101,40.45903056771364,267.18820600652697,0.0021413743961602,0.0235076546669006,-0.9977734088897704,0.0623784251511097,-0.0040278912879989,-0.0150342868063239,0.0236199647503736,0.0114548914134502,-0.0076777329668402,0.0171739067882299,-0.5005842250585556,-0.0712120151706039,-9.796049712896348,10.0,0.0,25,2019-07-09,12:50,R1,2019-07-09 12:50:17.700,209.4504522150783
177,17.9,1.7999999523162842,100.0,-79.78280708459394,40.45903058235642,267.19063739919665,0.0022493903525173,0.0235792249441146,-0.997771978378296,0.0623712241649627,-0.008490308775959,-0.0178861286016091,0.0223353901845877,0.0340815484523773,0.0586342141032218,0.0151126617565751,-0.4526002557948232,-0.0711697233561426,-9.809219396710397,10.0,0.0,25,2019-07-09,12:50,R1,2019-07-09 12:50:17.900,8.43354891873645
177,18.0,1.8999999761581416,95.0,-79.78280697340001,40.45903053740688,267.19549398565294,0.0022943455260246,0.0237228870391845,-0.9977551102638244,0.062583141028881,-0.0140202015142464,-0.0149864169021035,0.0252878152638361,-0.0072659528814256,0.0081244241446256,0.0027761016972362,-0.4714624233171344,-0.0633078038692474,-9.807515518069268,10.0,0.0,25,2019-07-09,12:50,R1,2019-07-09 12:50:18.000,5.999420579900742
177,18.2,1.8999999761581416,91.0,-79.78280688016915,40.45903050249585,267.1990630223751,0.0022996764164417,0.0237685106694698,-0.9977479577064514,0.0626805201172828,-0.0087596256531879,-0.0143410763256257,0.0234349360478025,0.0067446986213326,-0.0027217555325478,0.0040788250043988,-0.4836028875410557,-0.0839941016770899,-9.793590958714486,10.0,0.0,25,2019-07-09,12:50,R1,2019-07-09 12:50:18.200,51.011322671695325
177,18.3,1.7999999523162842,93.0,-79.78280687080357,40.4590305161534,267.20146103644373,0.0022495910525321,0.0237234774976968,-0.9977495670318604,0.0626743808388709,-0.006904834592344,-0.0154127162067441,0.0233192881144694,0.0291020777076482,-0.0160506628453731,0.005779474042356,-0.4902970358356834,-0.1052332811336964,-9.804595418572426,10.0,0.0,25,2019-07-09,12:50,R1,2019-07-09 12:50:18.300,89.5801849542695
177,18.5,1.8999999761581416,91.0,-79.7828067984201,40.459030461141055,267.20423366570475,0.0021499986760318,0.0237007457762956,-0.9977492094039916,0.0626914501190185,-0.0048895266240239,-0.0119886083064641,0.0232379646741634,-0.0159160494804382,0.0425673462450504,0.0292956251651048,-0.4858860425278544,-0.1077063884027302,-9.795542174577712,10.0,0.0,25,2019-07-09,12:50,R1,2019-07-09 12:50:18.500,131.10672213667203
177,18.6,1.8999999761581416,85.0,-79.78280679218236,40.45903047288817,267.2065951123238,0.0021287845447659,0.0235369503498077,-0.9977514147758484,0.0627195537090301,-0.0046807049665152,-0.0127823230472463,0.0227659351301376,0.0063759600743651,0.073990561068058,0.0017211230006068,-0.4697776577621698,-0.1279040234349668,-9.815853062868117,10.0,0.0,25,2019-07-09,12:50,R1,2019-07-09 12:50:18.600,157.59839243405622
177,18.81,1.8999999761581416,85.0,-79.7828067056713,40.45903041778472,267.20813034915926,0.0023185415193438,0.0235761776566505,-0.9977534413337708,0.062666043639183,0.0007824110614462,-0.0113588020688467,0.0207968534315394,0.0761189460754394,0.0713026374578476,-0.0133440615609288,-0.448272366039455,-0.1105067113414406,-9.807230758666991,10.0,0.0,25,2019-07-09,12:50,R1,2019-07-09 12:50:18.810,214.58881596465653
177,18.9,2.299999952316284,89.0,-79.78280662443102,40.45903038169179,267.21227898144724,0.0027665067464113,0.0232629403471946,-0.9977575540542604,0.0626986175775528,-0.0046941651393507,-0.0067621747358643,0.02547237685958,-0.0096504008397459,0.0276733003556728,0.0439284220337867,-0.4879253686219454,0.0963827253878116,-9.78977331161499,10.0,0.0,25,2019-07-09,12:50,R1,2019-07-09 12:50:18.900,249.8764142688287
177,19.1,2.299999952316284,94.0,-79.78280661776567,40.45903039084772,267.21477215433123,0.0029674083925783,0.023011565208435,-0.997772455215454,0.0625456273555755,-0.0109016414761727,-0.0127870917235268,0.0241815143121898,-0.057679858058691,-0.0036575375124812,0.0539814159274101,-0.4847327888756991,-0.0077749010408297,-9.79749339044094,10.0,0.0,25,2019-07-09,12:50,R1,2019-07-09 12:50:19.100,311.4107420205183
177,19.2,2.5999999046325684,96.0,-79.78280654748473,40.459030336619335,267.2191694273949,0.0032413953449577,0.0222211517393589,-0.9977879524230956,0.0625695809721946,-0.0120030434837702,-0.0093262380468729,0.0250430657501165,0.0173365231603384,-0.0375610031187534,0.0327163264155387,-0.4143256977573037,-0.0982902150414884,-9.78882372379303,10.0,0.0,25,2019-07-09,12:50,R1,2019-07-09 12:50:19.200,351.79978991196185
177,19.4,2.700000047683716,103.0,-79.78280653696636,40.45903034470917,267.22251056575783,0.0030992948450148,0.0210175216197967,-0.9977906942367554,0.0629477202892303,-0.0048573008010816,-0.0119363499583343,0.0312790695103894,0.0374890491366386,0.0313931070268154,-0.0156970452517271,-0.4731450327113271,-0.0738355420622974,-9.836714758872986,10.0,0.0,25,2019-07-09,12:50,R1,2019-07-09 12:50:19.400,418.2691814070131
177,19.51,3.0,103.0,-79.78280646664503,40.459030343947965,267.2246693863869,0.0046423249877989,0.0197985433042049,-0.997778594493866,0.063437670469284,0.0004022781608542,-0.0095709977351808,0.0274168917457197,0.0043038674630224,-0.009939613752067,-0.0874627530574798,-0.3823891194909811,-0.0275369961652904,-9.846658533811569,10.0,0.0,25,2019-07-09,12:50,R1,2019-07-09 12:50:19.510,459.5404060158253
177,19.7,3.2000000476837163,103.0,-79.78280639816624,40.459030318741576,267.23346250200274,0.0042381337843835,0.0239071734249591,-0.9974811673164368,0.0666482672095298,-0.007457163184023,0.034023595230458,0.0778883953425094,-0.0670726895332336,-0.1196940392255783,-0.1314800530672073,-0.2210214626044035,-0.179428755864501,-9.961038258075712,10.0,0.0,25,2019-07-09,12:50,R1,2019-07-09 12:50:19.700,533.3577675255218
177,19.8,3.700000047683716,94.0,-79.78280638641878,40.45903028085753,267.245949287653,0.001694394974038,0.0281744059175252,-0.996982216835022,0.0723180770874023,-0.0032950987204843,0.0535828592975007,0.1824125104134408,-0.0140916556119918,-0.0971317067742347,-0.1767684072256088,-0.2934088412113488,-0.0363082855939865,-10.660887991189956,10.0,0.0,25,2019-07-09,12:50,R1,2019-07-09 12:50:19.800,579.6939635896451
177,20.0,4.0,89.0,-79.78280659477286,40.45903023008565,267.27976645970347,-0.0049999863840639,0.0194296538829803,-0.9960175156593324,0.0868715345859527,0.0496004416805453,0.0819089249616154,0.4034017255230206,-0.085282988846302,0.413376122713089,-0.2061111629009246,-0.4023528658971191,0.0118215785524807,-11.234860035181049,10.0,0.0,25,2019-07-09,12:50,R1,2019-07-09 12:50:20.000,490.5436892841244
177,20.1,4.199999809265137,82.0,-79.78280665050737,40.45903010674194,267.3205376758576,-0.0020581937860697,0.0014215634437277,-0.9961100816726683,0.0880827903747558,0.0924091448192021,0.1306950017035021,0.4111823979769498,0.0993240773677826,0.2641380727291107,0.094189628958702,0.137706606388092,0.1249057631101459,-10.184867334365846,10.0,0.0,25,2019-07-09,12:50,R1,2019-07-09 12:50:20.100,486.7972040820023
177,20.3,4.300000190734863,86.0,-79.78280656626613,40.45902965332104,267.3561216487885,-0.0013819898013025,-0.007183420471847,-0.9962058067321776,0.0867204368114471,0.1120976094583069,0.1466337469384729,0.3700859932575502,0.0359448976814746,0.1421909630298614,0.135853886604309,0.0197686686739325,0.2705106879025697,-9.775040667057038,10.0,0.0,25,2019-07-09,12:50,R1,2019-07-09 12:50:20.300,473.7920454396663
177,20.4,4.199999809265137,74.0,-79.78280678010955,40.45902900626732,267.39502053403857,-0.0067831841297447,-0.0142133198678493,-0.9966689944267272,0.080018013715744,0.1459088989618025,0.1447353779324289,0.2914693329204825,-0.0508677996695041,0.0146703133359551,0.1122602298855781,-0.0093334032827988,0.2138646168261766,-9.761562834978104,10.0,0.0,25,2019-07-09,12:50,R1,2019-07-09 12:50:20.400,479.3436317415107
177,20.6,4.400000095367432,76.0,-79.78280692145843,40.45902886488192,267.4249752058983,-0.0131190381944179,-0.0114003224298357,-0.99691504240036,0.0765394046902656,0.1603989683130895,0.130505916383557,0.3053309675468437,-0.0568245872855186,-0.0418876744806766,0.1068202778697014,-0.0421293075475841,0.3154157326743007,-9.961434699296952,10.0,0.0,25,2019-07-09,12:50,R1,2019-07-09 12:50:20.600,470.5694582545764
177,20.7,4.400000095367432,70.0,-79.78280706489586,40.45902874007275,267.4577532901764,-0.0195671301335096,-0.0098138712346553,-0.9970633387565612,0.0733859241008758,0.1612739995670875,0.1063846461932205,0.3423123007090974,-0.0408703424036502,-0.0137527110055089,0.1252158135175705,-0.0928635238297283,0.2456147237308323,-10.151258708238602,10.0,0.0,25,2019-07-09,12:50,R1,2019-07-09 12:50:20.700,479.4031032901257
177,20.9,4.400000095367432,71.0,-79.78280751425825,40.45902852610392,267.49716209316256,-0.0174609385430812,-0.004834285005927,-0.9973992705345154,0.0697598829865455,0.1825398962541523,0.0888423704472305,0.3043710552461375,0.1395005136728286,-0.0598494037985801,0.1273284256458282,0.0189422104228288,0.1776771310530603,-9.854991985559462,10.0,0.0,25,2019-07-09,12:50,R1,2019-07-09 12:50:20.900,518.122659426226
177,21.0,4.099999904632568,70.0,-79.78280766258767,40.45902822445071,267.5568577542305,-0.0128621291369199,-0.0027355432976037,-0.997514545917511,0.0692232847213745,0.1890347221848101,0.0945558564238434,0.3246329146769231,-0.0413865782320499,-0.0107300207018852,-0.0666495263576507,0.0213231418188661,0.3614556123688817,-10.08850638985634,10.0,0.0,25,2019-07-09,12:50,R1,2019-07-09 12:50:21.000,475.7677777375648
177,21.1,3.900000095367432,68.0,-79.78280786350412,40.45902812551272,267.59106927061083,-0.0135472761467099,-0.0035192044451832,-0.997391402721405,0.0708134695887565,0.191448474050161,0.0860763663307103,0.3462149310587093,-0.0734487473964691,0.0102324122563004,-0.0644673705101013,-0.0872370131593197,0.3902251559123397,-9.954537323713303,10.0,0.0,25,2019-07-09,12:50,R1,2019-07-09 12:50:21.100,453.9012195643263
177,21.3,3.5,71.0,-79.78280841149395,40.4590278027178,267.6536005034447,-0.0172961968928575,-0.0086474828422069,-0.9969741702079772,0.0752896219491958,0.2245855749569184,0.0638802982074122,0.3295057640662716,-0.183163896203041,0.0445226654410362,-0.008470500819385,-0.135722618708387,0.4441814712435007,-9.895444192886352,10.0,0.0,25,2019-07-09,12:50,R1,2019-07-09 12:50:21.300,479.43585663847625
177,21.41,3.5999999046325684,74.0,-79.78280853596692,40.45902773991882,267.70096134090426,-0.0219473987817764,-0.0116366203874349,-0.996733784675598,0.0768429189920425,0.221828155328435,0.0509384325607492,0.3382565056534461,-0.1485370546579361,0.005385439377278,-0.1022831797599792,-0.0418759860657155,0.5871445052325726,-9.79118073642254,10.0,0.0,25,2019-07-09,12:50,R1,2019-07-09 12:50:21.410,453.197893224973
177,21.6,3.5,78.0,-79.78280900396065,40.45902763324681,267.7666941776276,-0.0293693803250789,-0.0113596804440021,-0.996451497077942,0.0780575647950172,0.206746172135536,0.0123785007675571,0.2980714326633511,-0.0301053058356046,-0.0307016428560018,-0.0026678722351789,-0.0864269271120429,0.4027130178362131,-9.61759152173996,10.0,0.0,25,2019-07-09,12:50,R1,2019-07-09 12:50:21.600,476.2097185427047
177,21.8,3.400000095367432,77.0,-79.78280908580352,40.45902749516121,267.81421648406985,-0.0290833376348018,-0.0104732103645801,-0.996495008468628,0.0777322202920913,0.1918924799559276,0.0068565775687271,0.2609888996449294,-0.0353360250592231,0.0594428963959217,0.0156384613364934,0.109081050530076,0.5296693355217577,-9.205273940563202,10.0,0.0,25,2019-07-09,12:50,R1,2019-07-09 12:50:21.800,490.8128654978427
177,21.9,3.400000095367432,78.0,-79.78280929675383,40.45902746875917,267.8319102420807,-0.0276641026139259,-0.008874611929059,-0.996610462665558,0.076965145766735,0.1843575543123069,-0.0019364182690851,0.0767473420882896,0.0778728052973747,-0.0955974832177162,0.0177012477070093,0.0369855347787961,0.4509105201065541,-8.356936504840853,10.0,0.0,25,2019-07-09,12:50,R1,2019-07-09 12:50:21.900,509.6503474086857
177,22.02,3.400000095367432,78.0,-79.78280972055178,40.45902725329248,267.86554204368593,-0.0169956441968679,-0.0024009926710277,-0.9971514344215392,0.0734476745128631,0.1844437516115694,-0.0199176014724605,0.0526659882754891,0.1102424189448356,0.1164675429463386,-0.0897986516356468,0.0873019081167876,0.5187680424749852,-9.748537577390673,10.0,0.0,25,2019-07-09,12:50,R1,2019-07-09 12:50:22.020,547.6427655694425
177,22.2,3.400000095367432,80.0,-79.78281007778905,40.4590270707756,267.92397104644783,-0.0177698638290166,-0.0072490414604544,-0.9973765015602112,0.0697983726859092,0.1827233789526819,-0.0229664862732164,0.2650693841854674,-0.0711671561002731,-0.0420058853924274,-0.0327407829463481,0.1104454983025789,0.3934218287095428,-10.772211960554124,10.0,0.0,25,2019-07-09,12:50,R1,2019-07-09 12:50:22.200,579.0417104294941
177,22.4,3.400000095367432,81.0,-79.78281019005848,40.45902695778285,268.02745174312594,-0.0244284830987453,-0.004616979509592,-0.9972781538963318,0.069413885474205,0.1710111895574183,-0.0199855486082822,0.5731141424281165,-0.1193102747201919,0.0157898366451263,-0.0989750102162361,0.0547613992681726,0.5613699055463076,-11.065149278640748,10.0,0.0,25,2019-07-09,12:50,R1,2019-07-09 12:50:22.400,670.8080128256296
177,22.52,3.400000095367432,81.0,-79.78281036251774,40.45902696534432,268.0952991142273,-0.0265209469944238,-0.0025909477844834,-0.9971728324890136,0.0702588558197021,0.1694773844486359,-0.0269569586079064,0.7763820300193951,-0.0937291383743286,-0.0312474835664033,0.0342882350087165,-0.0245341128855943,0.6696336615085602,-11.75956811785698,10.0,0.0,25,2019-07-09,12:50,R1,2019-07-09 12:50:22.520,684.5011595181059
177,22.6,3.5,80.0,-79.78281052282264,40.45902697571441,268.1848238601685,-0.0270848721265792,-0.0010000920156016,-0.997086465358734,0.0713022127747535,0.189974392315303,-0.0315339330735674,0.999441734122224,0.0876584947109222,0.025694029405713,0.0984072908759117,-0.0439323695842176,0.3287976338714361,-11.984881217479709,10.0,0.0,25,2019-07-09,12:50,R1,2019-07-09 12:50:22.600,671.1358489964333
177,22.81,3.5,78.0,-79.78281061491475,40.4590269614428,268.42927168750765,-0.0252676829695701,0.0010819444432854,-0.997020184993744,0.0728784129023552,0.1692213439249042,-0.0213696065133134,1.4328479445085969,-0.0267287846654653,-0.0673217549920082,-0.0641611665487289,0.0013367557246237,0.7088119067251683,-12.01654973745346,10.0,0.0,25,2019-07-09,12:50,R1,2019-07-09 12:50:22.810,713.2366013417485
177,22.9,3.5,79.0,-79.78281062179514,40.45902691816154,268.58926342868807,-0.0242001507431268,0.0024646744132041,-0.9970116615295408,0.0733220279216766,0.1737950739392153,-0.011174607995304,1.6547876892010092,0.0041524413973093,0.0753772780299186,-0.0819604843854904,0.0885874550230801,0.6804629972577095,-12.123710489273073,10.0,0.0,25,2019-07-09,12:50,R1,2019-07-09 12:50:22.900,725.350850174211
177,23.1,3.5999999046325684,81.0,-79.78281071945422,40.459026905776405,268.76692592048647,-0.0246265362948179,0.0020239851437509,-0.9969799518585204,0.073623389005661,0.1684305393807562,-0.0076093180133582,1.8835757630626977,0.0178803075104951,-0.0229670237749815,0.0595288947224617,0.0150587867153808,0.2673662015050649,-12.097192196846011,10.0,0.0,25,2019-07-09,12:50,R1,2019-07-09 12:50:23.100,724.5177576203133
177,23.3,3.5999999046325684,81.0,-79.78281079066275,40.459026799033005,269.1894074573517,-0.0312025230377912,-0.0013350745430216,-0.9969746470451356,0.0711777210235595,0.1743459935686654,0.023345236214852,2.297398357254504,-0.0030561604071408,-0.0075798351317644,0.0528053976595401,0.0581173036247491,0.4409681704267861,-11.89874003648758,10.0,0.0,25,2019-07-09,12:50,R1,2019-07-09 12:50:23.300,712.1419807412896
177,23.4,3.700000047683716,79.0,-79.78281082062904,40.45902675840311,269.4304920330048,-0.0316023677587509,-0.0010620213579386,-0.9971023797988892,0.0691886767745018,0.1775643998925636,0.0440503185990114,2.512572584755994,0.0010599007364362,-0.0564796812832355,0.0775584056973457,0.1078160511050373,0.3633985324949026,-11.960001314878465,10.0,0.0,25,2019-07-09,12:50,R1,2019-07-09 12:50:23.400,692.9360340466445
177,23.5,3.700000047683716,80.0,-79.78281067834482,40.45902661967151,269.99131308937075,-0.0335715115070343,-0.0024156209547072,-0.9970189929008484,0.0694290995597839,0.1290375179045012,0.0500231523329727,2.8773110784807945,-0.0737905502319336,0.03276127576828,-0.1726730316877365,-0.0386044734762981,0.7333148831874132,-11.378196340799333,10.0,0.0,25,2019-07-09,12:50,R1,2019-07-09 12:50:23.500,611.9104127227365
177,23.7,3.799999952316284,81.0,-79.78281036675095,40.45902650964093,270.6027282371521,-0.0383334271609783,-0.0054983128793537,-0.9966163039207458,0.0725002437829971,0.0947421468865424,0.06465991732575,3.014434554970035,-0.0495847426354885,-0.0097765568643808,-0.1245407164096832,0.0048878680053167,0.3085367392748594,-10.902537041902542,10.0,0.0,25,2019-07-09,12:50,R1,2019-07-09 12:50:23.700,603.7675315007656
177,23.9,3.900000095367432,81.0,-79.78281020025855,40.45902648020346,270.9060090675354,-0.039755180478096,-0.0041028885170817,-0.9965535402297974,0.0726897567510604,0.085671813201982,0.0733721864758943,3.051887860317676,-0.021273884922266,0.009959103539586,-0.1202340871095657,0.0917674541193992,0.5343290182203054,-10.183612521886824,10.0,0.0,25,2019-07-09,12:50,R1,2019-07-09 12:50:23.900,573.0720915722851
177,24.0,3.900000095367432,82.0,-79.7828099055645,40.459026402069824,271.2530325546265,-0.0389642901718616,-0.0030208546668291,-0.9966246485710144,0.0721943005919456,0.0556752601192278,0.0648948769448704,3.1063571906660195,0.0182556770741939,-0.0617745518684387,-0.04262300953269,0.0471983410231769,0.5994483991339803,-10.168847132921222,10.0,0.0,25,2019-07-09,12:50,R1,2019-07-09 12:50:24.000,590.0455611888938
177,24.2,3.900000095367432,80.0,-79.78280889270806,40.4590262514547,272.26615845108034,-0.0314007475972175,-0.0058560417965054,-0.997125506401062,0.068706028163433,-0.070327105572459,0.0656112239558761,3.2359620773611546,0.01910893432796,-0.0540418326854705,0.0653289780020713,-0.0371891777683049,0.4314410461485386,-10.153546139001849,10.0,0.0,25,2019-07-09,12:50,R1,2019-07-09 12:50:24.200,583.0976569201702
177,24.3,4.0,80.0,-79.7828085418916,40.45902623954756,272.5896924629212,-0.0292481202632188,-0.0070838597603142,-0.9972901940345764,0.0671320855617523,-0.086905395664551,0.0793753884470933,3.2576926134181465,0.0488667339086532,0.0632305145263671,-0.0519726015627384,0.1725483372062445,0.5766309191286564,-10.054515355825425,10.0,0.0,25,2019-07-09,12:50,R1,2019-07-09 12:50:24.300,574.4715035713234
177,24.51,4.099999904632568,80.0,-79.7828080506468,40.45902615532696,272.9630058898926,-0.0267821867018938,-0.0068847299553453,-0.9974442720413208,0.0658816993236541,-0.1127634144349829,0.0885773422742912,3.291015646022893,0.0406477488577365,-0.0252739153802394,0.0888530015945434,0.0904499759338796,0.4233292038738728,-9.998977332115173,10.0,0.0,25,2019-07-09,12:50,R1,2019-07-09 12:50:24.510,562.9367585464571
177,24.6,4.099999904632568,82.0,-79.78280729894333,40.45902613387232,273.6171978607178,-0.024668077006936,-0.005898505449295,-0.9974261522293092,0.0670659765601158,-0.1543769301075182,0.0741572346121467,3.2669996400736085,-0.004119798541069,0.0595069415867328,-0.0093054734170436,-0.0063499939721077,0.4280831729248166,-9.646779652833937,10.0,0.0,25,2019-07-09,12:50,R1,2019-07-09 12:50:24.600,541.3460054014831
177,24.7,4.099999904632568,82.0,-79.78280680405877,40.459026192843325,273.9677609100342,-0.0240766648203134,-0.0089969187974929,-0.9972864985466005,0.0689857229590416,-0.1601658163627359,0.0643759016947637,3.2507725768037785,-0.0329049341380596,0.0193518809974193,-0.0295231062918901,-0.0121447674091905,0.4565070363879204,-9.633800003528595,10.0,0.0,25,2019-07-09,12:50,R1,2019-07-09 12:50:24.700,551.5222795355367
177,24.9,4.199999809265137,81.0,-79.78280643440822,40.45902620065707,274.2909415855408,-0.0226604267954826,-0.010618008673191,-0.9971721768379213,0.0708627104759216,-0.1453952717082134,0.0778936582271224,3.2358722615649747,0.1063532084226608,0.0120352385565638,0.0400003530085086,0.0407354226987808,0.376550455391407,-9.664714232683185,10.0,0.0,25,2019-07-09,12:50,R1,2019-07-09 12:50:24.900,496.82491602083246
177,25.0,4.199999809265137,81.0,-79.78280561452004,40.45902635515678,274.9308088912964,-0.0308853331953287,-0.0088517647236585,-0.9967305064201356,0.0741366222500801,-0.1492000118821329,0.0500112612323892,3.1271150848087785,-0.0911884978413581,0.0283227507025003,0.0403757877647876,0.060018658270128,0.3744428995996713,-9.308669670224193,10.0,0.0,25,2019-07-09,12:50,R1,2019-07-09 12:50:25.000,518.8438688883614
177,25.2,4.199999809265137,80.0,-79.7828052685566,40.45902630015035,275.4880274429321,-0.0300031155347824,-0.0096823051571846,-0.9967061877250672,0.0747194960713386,-0.0768045790875064,0.0284848292390341,2.982413269234337,0.2145934551954269,0.0551432892680168,-0.0185625087469816,0.1136060188617557,0.4961901155859232,-9.400833483338356,10.0,0.0,25,2019-07-09,12:50,R1,2019-07-09 12:50:25.200,539.4235192498163
177,25.4,4.199999809265137,78.0,-79.78280493253006,40.45902635213263,275.7834690704346,-0.0252499151974916,-0.0083147659897804,-0.9969053864479064,0.0739803239703178,-0.1222525953700988,0.0223694237601489,2.9540979554948,0.0004292271623853,-0.0254837647080421,0.0455047488212585,-0.0971608253382146,0.5988660895451904,-9.469167553782462,10.0,0.0,25,2019-07-09,12:50,R1,2019-07-09 12:50:25.400,554.3666045013597
177,25.5,4.199999809265137,79.0,-79.7828043334412,40.45902699184458,276.1049393310547,-0.0207431018352508,-0.0072229118086397,-0.9970723986625672,0.0732403174042701,-0.148589749345585,-0.0499813597193239,2.912554807076139,0.034704815596342,0.0075010852888226,-0.0488513819873333,-0.0162346709193661,0.5191653973236681,-9.4753568315506,10.0,0.0,25,2019-07-09,12:50,R1,2019-07-09 12:50:25.500,587.5698258186385
177,25.7,4.300000190734863,79.0,-79.78280369540455,40.45902724878442,276.682335723877,-0.0132782878354191,-0.0048449262976646,-0.9973385334014891,0.071527786552906,-0.1883233937404432,-0.0817660106849867,2.8983862186365235,-0.0692993402481079,-0.0780593901872634,0.0209285356104374,-0.065750857363455,0.5863848057389259,-9.781246317029,10.0,0.0,25,2019-07-09,12:50,R1,2019-07-09 12:50:25.700,559.6682813984806
177,25.8,4.300000190734863,83.0,-79.78280220730228,40.45902705598788,277.3857105865479,-0.0074559892527759,-0.0018094782717525,-0.9975019693374634,0.0702204629778862,-0.199366390502994,-0.092373595897359,2.9290831414550884,0.0087534505873918,0.0275014862418174,0.0411590710282325,-0.1012575125321746,0.5252208103984595,-9.797474094629289,10.0,0.0,25,2019-07-09,12:50,R1,2019-07-09 12:50:25.800,541.5001221287238
177,26.0,4.300000190734863,84.0,-79.78280099804988,40.45902670981079,277.7845352783204,-0.0076846010051667,-0.0021884650923311,-0.9975475072860718,0.069535806775093,-0.2119053388520898,-0.0701289431895886,2.9657371647850006,-0.0315195024013519,0.0522838644683361,0.0254398640245199,0.0371830107830464,0.4151349158585072,-9.939349765777589,10.0,0.0,25,2019-07-09,12:50,R1,2019-07-09 12:50:26.000,516.9479481327689
177,26.1,4.300000190734863,85.0,-79.78280072522298,40.45902681165297,278.0811346664429,-0.0102001754567027,-0.003050290280953,-0.9975056052207948,0.0697812512516975,-0.1829813783236065,-0.0731266817792016,2.970466297034983,-0.0492210760712623,0.0654386579990387,0.1026821658015251,-0.0094311340106651,0.3959561581537128,-9.882810698747637,10.0,0.0,25,2019-07-09,12:50,R1,2019-07-09 12:50:26.100,514.6338940575914
177,26.2,4.300000190734863,85.0,-79.78279981270389,40.45902669734676,278.7747219696045,-0.0167211275547742,0.0028267523739486,-0.9971474409103394,0.0735487565398216,-0.095687006877546,-0.0676620866105162,2.9658196368651097,0.0597755908966064,-0.0261095985770225,-0.0705122575163841,-0.0650032314565032,0.4561688480526209,-9.595344620347024,10.0,0.0,25,2019-07-09,12:50,R1,2019-07-09 12:50:26.200,534.3454952107276
177,26.4,4.199999809265137,83.0,-79.78279930644344,40.459026737898014,279.45903955841067,-0.0126535939052701,-0.0013555665500462,-0.9970772862434388,0.075333222746849,-0.0444811078325278,-0.084940821015686,2.9257594662380457,0.0823195949196815,0.0936698913574218,0.0648848488926887,-0.0188290119823068,0.49972322255373,-9.370786396265029,10.0,0.0,25,2019-07-09,12:50,R1,2019-07-09 12:50:26.400,506.45195747729326
177,26.5,4.099999904632568,83.0,-79.78279916596469,40.4590268010671,279.7485464706421,-0.0106264324858784,-0.0031276298686861,-0.9971534609794616,0.0745804533362388,-0.0448387129549969,-0.0416594436749969,2.8641915840867536,0.0550876185297966,-0.0189577527344226,-0.0060898102819919,0.1520465921424329,0.3623124121874571,-9.203040888905525,10.0,0.0,25,2019-07-09,12:50,R1,2019-07-09 12:50:26.500,519.3267776496942
177,26.7,4.0,84.0,-79.7827990067959,40.459026858257104,280.0312498703003,-0.0117950271815061,-0.0010986793786287,-0.997165322303772,0.0743038654327392,-0.0482168281026185,-0.0271423421526942,2.7924520536639283,0.0693953111767768,0.0300564151257276,0.0430850237607955,0.1027085904590785,0.2054759819805622,-9.174923382997507,10.0,0.0,25,2019-07-09,12:50,R1,2019-07-09 12:50:26.700,600.1496312162999
177,26.9,4.0,84.0,-79.78279873959245,40.459026770693775,280.70395838165285,-0.0108657227829098,-0.0079780854284763,-0.9971936345100404,0.0736420005559921,-0.0164603393364814,-0.0239926072349578,2.8164218938365333,0.0532194375991821,0.149421215057373,0.0465415306389331,0.0845989687275141,0.2619959359243512,-9.720752778053283,10.0,0.0,25,2019-07-09,12:50,R1,2019-07-09 12:50:26.900,584.9337692779956
177,27.0,3.900000095367432,85.0,-79.78279850068319,40.45902664059528,281.0718268051148,-0.0073336563073098,-0.0105329239740967,-0.9972326755523682,0.0732287019491195,-0.0258126956517889,0.015105178079323,2.8861134341655563,0.0013132414314895,-0.0413861721754074,-0.0761469155550003,0.1036973728984594,0.277192410863936,-9.900182776451109,10.0,0.0,25,2019-07-09,12:50,R1,2019-07-09 12:50:27.000,617.2424996543087
177,27.2,3.900000095367432,88.0,-79.78279843703002,40.45902664244982,281.9985760345458,-0.0005427839932963,-0.0062415776774287,-0.9975292086601256,0.0699735209345817,-0.0151028244924056,0.0049816842005191,2.992824880828346,-0.0452423430979251,-0.0568709038197994,-0.0057528559118509,0.151281429156661,0.0760362056270241,-10.147834578752516,10.0,0.0,25,2019-07-09,12:50,R1,2019-07-09 12:50:27.200,553.9735877898564
177,27.3,3.799999952316284,88.0,-79.78279842746204,40.45902668411648,282.2983482971192,-0.0007879105978645,-0.0021157918963581,-0.997581660747528,0.0694682374596595,0.0123004574943762,-0.0115789772793407,3.0007627112597954,0.0531571246683597,-0.0656303837895393,0.0266068577766418,0.0937867078185081,0.1210732330195605,-9.954890495538711,10.0,0.0,25,2019-07-09,12:50,R1,2019-07-09 12:50:27.300,612.2465009059233
177,27.5,3.799999952316284,89.0,-79.78279834472744,40.459026531175006,282.6177042617798,-0.0016074999002739,0.0009936180431395,-0.9975513219833374,0.0699130073189735,0.0186307016090081,-0.0138769657846402,3.0040624787647445,-0.1023720726370811,-0.0926791206002235,-0.0400665961205959,0.0013775674626231,0.2841724880039692,-9.904640693664554,10.0,0.0,25,2019-07-09,12:50,R1,2019-07-09 12:50:27.500,560.8498031911586
177,27.6,3.799999952316284,94.0,-79.7827983799055,40.45902655265434,282.9190910949707,-0.0037450259551405,0.0010555590270087,-0.9975062608718872,0.0704713389277458,0.0526446392112602,-0.0326353643566518,3.020371053654772,0.0753597542643547,0.0989023968577385,0.0453130453824996,0.0450057996064424,0.042217573095113,-9.951631257534029,10.0,0.0,25,2019-07-09,12:50,R1,2019-07-09 12:50:27.600,647.7882137166597
177,27.8,3.799999952316284,95.0,-79.78279846276907,40.45902646835055,283.5302036895752,-0.0059698787517845,-0.0026678233407437,-0.9975302219390868,0.0699343755841255,0.0931417535862279,-0.0120916049412441,3.0305391478399506,0.0596263259649276,0.0878953114151954,0.1152207106351852,0.0093093337677419,0.1312198515236377,-9.92806463956833,10.0,0.0,25,2019-07-09,12:50,R1,2019-07-09 12:50:27.800,638.257628392428
177,27.91,3.799999952316284,101.0,-79.78279852923316,40.4590264711573,283.83384024047854,-0.0059636887162923,-0.0033710564021021,-0.997535526752472,0.069828450679779,0.1017366500777504,0.0035109779949891,3.039286375642303,0.0379989147186279,-0.0101015921682119,0.0146606750786304,0.138729457994923,0.0660456072818487,-9.962714070081711,10.0,0.0,25,2019-07-09,12:50,R1,2019-07-09 12:50:27.910,589.271157973708
177,28.01,3.799999952316284,104.0,-79.78279878680362,40.45902624371879,284.44555746459963,-0.0057001402601599,-0.0017755777807906,-0.997443437576294,0.0712113976478576,0.1196222745002829,0.0131788762481847,3.045795656853388,0.0556354597210884,0.0448550879955291,-0.0646208524703979,0.0409836872527375,0.0275155990105122,-9.86672033071518,10.0,0.0,25,2019-07-09,12:50,R1,2019-07-09 12:50:28.010,569.2280064378684
177,28.2,3.900000095367432,112.0,-79.78279905126713,40.45902609130121,285.05981527709963,-0.008620043285191,-0.0050243907608091,-0.9973106980323792,0.072608470916748,0.1423849680367687,0.0225883824401468,3.053201543829866,0.0862887129187583,0.0167201682925224,-0.0372484438121318,-0.0226853649085387,0.2166777122765779,-9.817103197574616,10.0,0.0,25,2019-07-09,12:50,R1,2019-07-09 12:50:28.200,580.9281888538828
177,28.3,3.799999952316284,115.0,-79.78279914413646,40.45902607693459,285.36612020874026,-0.0079362783581018,-0.0052341567352414,-0.9973720908164978,0.0718231722712516,0.1267898446577843,0.0342769841221032,3.070607897388648,-0.0248578395694494,0.0252621807157993,0.0010457254247739,0.0619186561787501,0.2555925404280424,-9.941031424999238,10.0,0.0,25,2019-07-09,12:50,R1,2019-07-09 12:50:28.300,594.6830980974264
177,28.5,3.799999952316284,118.0,-79.78279924609974,40.45902599964636,285.6737507476807,-0.0076437988318502,-0.003685506992042,-0.9974788427352904,0.0704551860690116,0.146655983272207,0.0295164233906262,3.059693202344124,0.1580147743225097,-0.0420258715748786,0.1061014011502266,0.1303673457540571,-0.0153657426964491,-9.953066164255144,10.0,0.0,25,2019-07-09,12:50,R1,2019-07-09 12:50:28.500,628.8638311318791
177,28.7,3.700000047683716,121.0,-79.7827994301947,40.45902597180739,286.29150473022463,-0.0045824740082025,-0.0016976399347186,-0.9976825714111328,0.0678647682070732,0.1026810283707759,0.0157643694291803,3.1137013487523184,-0.0974016636610031,0.0063847000710666,-0.0946213081479072,0.0318830693908967,0.3183986897394061,-10.003763862848285,10.0,0.0,25,2019-07-09,12:50,R1,2019-07-09 12:50:28.700,595.7712665220644
177,28.81,3.700000047683716,125.0,-79.78279956484084,40.45902580939088,286.6023224487305,-0.0050480440258979,-0.0023796502500772,-0.9976664781570436,0.0680479854345321,0.1152355579530257,0.024352524016344,3.1110916673325724,0.0772528424859047,0.0418728440999984,0.0726695880293846,0.123796464074403,-0.0439359601400792,-9.98227768421173,10.0,0.0,25,2019-07-09,12:50,R1,2019-07-09 12:50:28.810,610.5071185002852
177,28.91,3.700000047683716,126.0,-79.7827998448077,40.45902576302695,287.22078596496584,-0.0048776022158563,-0.0002247159864054,-0.9975346922874452,0.0700057968497276,0.1101625138016291,0.019421670899348,3.100257936946199,-0.1122972965240478,-0.0365081764757633,-0.1211065873503685,0.0147420412162318,0.2484908594749868,-9.760427890419962,10.0,0.0,25,2019-07-09,12:50,R1,2019-07-09 12:50:28.910,484.58021147409454
177,29.11,3.5,129.0,-79.78280003074767,40.45902571838123,287.8274449005127,-0.005144827067852,0.0003270377637818,-0.9973825812339784,0.0721213221549987,0.1017828928047124,0.0110012029652782,2.9365499529413284,-0.0312177501618862,-0.0147025771439075,-0.0019746457692235,-0.0283371739229187,0.0374479216290637,-8.89681752741337,10.0,0.0,25,2019-07-09,12:50,R1,2019-07-09 12:50:29.110,494.9143722451591
177,29.3,3.5,129.0,-79.78280024131445,40.459025539523495,288.41563497924807,-0.0075166942551732,-0.0054170140065252,-0.9973317384719848,0.0724130421876907,0.107614966647469,0.0318556526712889,2.714795682781321,-0.0517232865095138,0.0525418929755687,-0.025124816223979,-0.0421732073463499,0.1425644548796117,-8.793070380091669,10.0,0.0,25,2019-07-09,12:50,R1,2019-07-09 12:50:29.300,460.9805942604433
177,29.4,3.299999952316284,130.0,-79.78280033965343,40.45902552448485,288.7133873596192,-0.0069935056380927,-0.0072181583382189,-0.997370421886444,0.071772500872612,0.1126196794316084,0.049350914493942,2.610287817623192,0.1040513589978218,0.0033826574217528,0.0123496269807219,0.0668974735122174,0.0146469737123698,-8.452846629023552,10.0,0.0,25,2019-07-09,12:50,R1,2019-07-09 12:50:29.400,445.0968763857599
177,29.5,3.299999952316284,130.0,-79.78280041186176,40.45902549539253,288.96773420715334,-0.0053796167485415,-0.0064642052166163,-0.9974626302719116,0.0706937089562416,0.0993508190160913,0.0561252069815087,2.479577687884111,0.009827185422182,-0.0388231687247753,0.0279795788228511,0.0098308962676674,0.158039440009743,-8.466969408988954,10.0,0.0,25,2019-07-09,12:50,R1,2019-07-09 12:50:29.500,468.8122749053289
177,29.7,3.0999999046325684,127.0,-79.7828005112327,40.459025387346905,289.46217047119137,-0.001866879989393,-0.005154566373676,-0.9976293444633484,0.0685982853174209,0.0816467001012309,0.0333832904517201,2.270254466897184,0.0358233340084552,0.0118229165673255,0.0611684694886207,0.0193387886881828,-0.0230249191168695,-8.666838349699974,10.0,0.0,25,2019-07-09,12:50,R1,2019-07-09 12:50:29.700,465.1369278282073
177,29.8,3.0999999046325684,126.0,-79.78280058114628,40.45902536578706,289.6838539733887,-0.0019205990247428,-0.0059751896187663,-0.9976595640182496,0.0680891945958137,0.0759179987536215,0.0289654401387092,2.1601559554797314,0.021647211164236,0.0125231966376304,-0.0381751507520675,0.0714877113886177,0.0840957427304238,-8.717519091367723,10.0,0.0,25,2019-07-09,12:50,R1,2019-07-09 12:50:29.800,444.6245428858893
177,30.0,3.0,125.0,-79.78280057723263,40.45902529113168,289.92538916015627,-0.0025221286341547,-0.0066244252957403,-0.99766743183136,0.0678930357098579,0.0704445176084198,0.0316468045445088,2.0979697524302257,-0.0057050408795475,-0.0014869244769215,0.029780201613903,-0.033600609046407,0.0470884407777339,-8.841018133163454,10.0,0.0,25,2019-07-09,12:50,R1,2019-07-09 12:50:30.000,469.1476083395465
177,30.21,3.0,126.0,-79.7828007246442,40.45902526603077,290.3291252746582,-0.002557156374678,-0.0063401106745004,-0.997615933418274,0.0686718448996543,0.0752639587620171,0.0247150373158301,1.9377733395259749,-0.0673471242189407,-0.0085563184693455,-0.0340339466929435,0.037504785801284,0.2281442118063569,-8.974166250228881,10.0,0.0,25,2019-07-09,12:50,R1,2019-07-09 12:50:30.210,437.14586865625824
177,30.3,2.900000095367432,126.0,-79.78280064692359,40.45902518540007,290.57203565979006,-0.0022835475392639,-0.0041556293144822,-0.9975616931915284,0.069628894329071,0.0730581924549567,0.0274984155818896,1.9000517178028289,0.029489142820239,-0.0074740229174494,0.0240894760936498,0.0800370167568326,0.0668229032400995,-8.971202881336213,10.0,0.0,25,2019-07-09,12:50,R1,2019-07-09 12:50:30.300,458.7653620998972
177,30.4,2.900000095367432,125.0,-79.78280056160736,40.45902504340009,291.00594221496584,-0.0013830852694809,0.0002460406976751,-0.9974297881126404,0.0716370791196823,0.0560535598668203,0.0230832666667278,1.7727688680902416,-0.0367658697068691,-0.0348704122006893,-0.0139463543891906,0.0196083498978987,0.1359299390483647,-8.922395002841949,10.0,0.0,25,2019-07-09,12:50,R1,2019-07-09 12:50:30.400,488.59165545816
177,30.6,2.799999952316284,124.0,-79.78280070144707,40.459024980751686,291.3438767089844,0.0015725635457783,0.0030262442305684,-0.9974123239517212,0.0718138068914413,0.0764802437055797,0.0263481520578921,1.5970510251718018,0.0298851579427719,-0.0187992881983518,0.0476882979273796,0.0122837347118183,0.0185308176884427,-8.859822193980216,10.0,0.0,25,2019-07-09,12:50,R1,2019-07-09 12:50:30.600,421.7712430577376
177,30.8,2.700000047683716,123.0,-79.78280057859169,40.45902484741354,291.57330213928225,0.0006207681726664,0.0031089426483958,-0.997422695159912,0.071679875254631,0.0544378530090917,0.0411639305931098,1.563532148446221,-0.0600343830883503,0.0143271088600158,-0.0262960754334926,0.0534450676850974,0.1596880807355046,-8.882554998993873,10.0,0.0,25,2019-07-09,12:50,R1,2019-07-09 12:50:30.800,466.7996496887645
177,30.9,2.5999999046325684,126.0,-79.78280064180143,40.45902479699486,291.7261646881104,-0.0016969364369288,0.0024170111864805,-0.9974513649940492,0.0712894424796104,0.0665072354245126,0.0487374660529311,1.4928539451039593,-0.0504591092467308,0.016632379963994,0.0076564652845263,0.0311944089992903,0.0220478836423717,-9.067040500044824,10.0,0.0,25,2019-07-09,12:50,R1,2019-07-09 12:50:30.900,455.5336706111484
177,31.1,2.5,128.0,-79.78280054357649,40.45902457209795,292.09485708618166,-0.007182931061834,-0.0006616351893171,-0.9974725246429444,0.0706869289278984,0.069001210779896,0.0739737307232115,1.4276992030927682,-0.0138440309092402,0.0354964323341846,0.0301662161946296,-0.0229063942283392,0.1395108287315815,-8.954697945713997,10.0,0.0,25,2019-07-09,12:50,R1,2019-07-09 12:50:31.100,376.5077848025321
177,31.2,2.299999952316284,129.0,-79.78280045487959,40.45902436194768,292.3800915374756,-0.0046204663813114,-0.0080434083938598,-0.9946992993354796,0.1024074852466583,0.0130325590276616,0.0822998843548269,0.9273046104637116,0.0523626059293746,0.0646315664052963,-0.8329921364784241,-0.0363273986801505,-0.0514188932580873,-7.360895478129388,10.0,0.0,25,2019-07-09,12:50,R1,2019-07-09 12:50:31.200,444.0769713094924
177,31.31,2.299999952316284,131.0,-79.7828004409075,40.45902430073673,292.4638184204102,-0.0022787488996982,-0.0073208096437156,-0.9890427589416504,0.1474307477474212,0.005513648819984,0.0782115994042761,0.7562254127433793,0.0104529419913887,-0.0254222359508276,-0.996456503868103,-0.0248812273610383,0.0317162478715181,-7.937710438370704,10.0,0.0,25,2019-07-09,12:50,R1,2019-07-09 12:50:31.310,433.16279389233387
177,31.5,2.200000047683716,134.0,-79.78280042709648,40.4590241986981,292.51231466674807,0.0012126812944188,-0.0044358070008456,-0.9792622327804564,0.2025450617074966,0.0138331578493024,0.0659626714113752,0.6327738652005734,0.1405494511127472,-0.0882160887122154,-1.17972731590271,0.0181327639147639,-0.2192744972929358,-8.432383128404616,10.0,0.0,25,2019-07-09,12:50,R1,2019-07-09 12:50:31.500,439.2518443396039
177,31.7,2.0999999046325684,135.0,-79.78280041830381,40.459024118873096,292.6229923858643,0.0033499973360449,-0.0015038984129205,-0.9446677565574646,0.328008234500885,0.0065139740474587,0.0243487573160896,0.4855951949612152,-0.0724005401134491,0.0159500893205404,-1.5293416976928709,-0.0969295953679829,0.1342564293835312,-9.097229089736937,10.0,0.0,25,2019-07-09,12:50,R1,2019-07-09 12:50:31.700,475.7964811336788
177,31.8,2.0,124.0,-79.78280043425235,40.4590239908758,292.6180676116944,0.003674641251564,-0.0014552527572959,-0.917587399482727,0.3975146114826201,0.0291220111768841,0.0132345373671115,0.4293851368824712,-0.0228541772812604,-0.0247061662375926,-1.5159953832626345,-0.1047165517229586,0.0099333961308002,-9.266182047128677,10.0,0.0,25,2019-07-09,12:50,R1,2019-07-09 12:50:31.800,470.6616266480923
177,32.0,2.0,116.0,-79.78280043646855,40.45902385334977,292.64318548583987,0.0078429402783513,0.0006942698964849,-0.8455970287322998,0.5337638258934021,0.0621552597253575,-0.0246314084507897,0.3681197340703454,0.0909003242850303,-0.0134481340646743,-1.6324518918991089,-0.062081396067515,0.0297503271745517,-9.645171083807943,10.0,0.0,25,2019-07-09,12:50,R1,2019-07-09 12:50:32.000,461.6449206191283
177,32.1,1.7999999523162842,124.0,-79.78280056816325,40.45902376667615,292.72137342834475,0.0136155327782034,0.0051643270999193,-0.7506726980209351,0.660513699054718,0.0884215174478101,-0.0695802442986424,0.3759489841636631,0.1650451868772506,0.0210575219243764,-1.588410496711731,-0.0376369100343436,-0.0602659726515412,-9.77007930457592,10.0,0.0,25,2019-07-09,12:50,R1,2019-07-09 12:50:32.100,463.3509471396064
177,32.21,1.7999999523162842,129.0,-79.78280051627,40.45902364301968,292.6946819915772,0.0163064524531364,0.0082492195069789,-0.6989864110946655,0.7149015069007874,0.1042607993055377,-0.0873586031080599,0.353905352263577,0.0938997641205787,-0.0442247167229652,-1.2551045417785645,-0.1046839443594217,-0.0514487551711499,-9.682248278260232,10.0,0.0,25,2019-07-09,12:50,R1,2019-07-09 12:50:32.210,484.7144133095207
177,32.4,1.7999999523162842,114.0,-79.78280059820615,40.459023571051375,292.72818075561526,0.0177281685173511,0.0110777020454406,-0.6535026431083679,0.7566354870796204,0.1178766793355141,-0.1047725370289361,0.3356816763233004,0.0153458267450332,-0.0160463787615299,-1.1907305717468262,0.0073329406161792,0.2082266218587756,-9.630096961855893,10.0,0.0,25,2019-07-09,12:50,R1,2019-07-09 12:50:32.400,490.48578037267725
177,32.6,1.7000000476837158,100.0,-79.78280061534332,40.4590232871856,292.7300556793213,0.0185191128402948,0.0140289328992366,-0.5886273980140686,0.8080705404281616,0.1748986213898728,-0.1268292853115861,0.3156577286912847,-0.0572705045342445,0.0086177596822381,-0.5380483865737915,0.0852150642592459,0.1435627938620746,-9.700804417133332,10.0,0.0,25,2019-07-09,12:50,R1,2019-07-09 12:50:32.600,560.2829007671387
177,32.71,1.7000000476837158,112.0,-79.78280048416214,40.459022885213024,292.79491888427737,-0.011257798410952,0.0418915152549743,-0.5611817240715027,0.8265552520751953,0.2453313781007116,0.0106185578719956,0.403812589511427,-0.021611176431179,-0.9177546501159668,-0.1803181618452072,0.5182721254974604,0.1106715480051934,-10.080989209413527,10.0,0.0,25,2019-07-09,12:50,R1,2019-07-09 12:50:32.710,471.22810339898206
177,32.8,1.7000000476837158,117.0,-79.78280031605664,40.45902264882067,292.83514868164065,-0.039053913205862,0.0645165592432022,-0.5580409169197083,0.8263793587684631,0.2949981818630848,0.0678722492072417,0.4247340805305652,0.0561308078467845,-0.6699377298355103,-0.0059687932953238,0.1481930943019688,0.0187997119501233,-9.99894458770752,10.0,0.0,25,2019-07-09,12:50,R1,2019-07-09 12:50:32.800,525.6550688595743
177,33.0,1.7999999523162842,106.0,-79.78280070932489,40.45902257345836,292.7262638702393,-0.0598916448652744,0.0777520537376403,-0.5590700507164001,0.8232911229133606,0.3208966881807005,0.1464880784979236,0.4530020530277333,0.0323423743247985,-0.3912253677845001,0.1232421174645424,0.0785472375713288,-0.2298899345844984,-10.154301599264146,10.0,0.0,25,2019-07-09,12:50,R1,2019-07-09 12:50:33.000,510.7351043558445
177,33.2,1.7999999523162842,104.0,-79.78279949440584,40.45902220686259,292.8169468536377,-0.081933282315731,0.0826355889439582,-0.5691835880279541,0.8139339089393616,0.3863963394562751,0.5091983539195295,0.6303822817683747,-0.0156556963920593,-0.0518790930509567,0.2492839694023133,-0.0132937589893117,-0.2517513217404485,-10.338128703832629,10.0,0.0,25,2019-07-09,12:50,R1,2019-07-09 12:50:33.200,504.4231576371205
177,33.3,1.7999999523162842,109.0,-79.78279944460935,40.45902223987708,292.7170113220215,-0.0873258635401725,0.0802415981888771,-0.5750342011451721,0.8094881772994995,0.3568470687821327,0.6877050640330706,0.6630655370438259,-0.2425519526004791,-0.087982565164566,0.0405727811157703,-0.0005268638231791,0.0154187787696719,-10.321687502861025,10.0,0.0,25,2019-07-09,12:50,R1,2019-07-09 12:50:33.300,533.072402346661
177,33.4,1.8999999761581416,110.0,-79.78279755384881,40.4590224169608,292.6761768951416,-0.0945268049836158,0.0769668966531753,-0.5832388401031494,0.8031023144721985,0.3340052927421753,1.1087044523986314,0.7427791901852653,-0.1026276797056198,0.0193706899881362,0.0962014123797416,-0.0643349495250731,-0.1557043361663818,-10.1641331076622,10.0,0.0,25,2019-07-09,12:50,R1,2019-07-09 12:50:33.400,502.5544155985663
177,33.6,2.0999999046325684,114.0,-79.78279396978219,40.4590226786371,292.7648857727051,-0.0990582257509231,0.0741121992468833,-0.5854952335357666,0.8011805415153503,0.3185775698857022,1.5592043132684803,0.8536540314098129,0.1016399413347244,0.0498678050935268,0.047702245414257,-0.1586537082865834,-0.1858436630666256,-10.09265908241272,10.0,0.0,25,2019-07-09,12:50,R1,2019-07-09 12:50:33.600,529.2078703387053
177,33.7,2.200000047683716,111.0,-79.78279250170685,40.45902317566066,292.7000378265381,-0.0999989807605743,0.0744660571217536,-0.5853654742240906,0.801125705242157,0.2589168634588721,1.7436814321261926,0.8794913154678594,0.0551597699522972,-0.043068528175354,-0.0903181657195091,-0.2014076537825167,-0.067496730890125,-10.20349539399147,10.0,0.0,25,2019-07-09,12:50,R1,2019-07-09 12:50:33.700,534.4086471783811
177,33.9,2.5,108.0,-79.78279013381255,40.45902351135626,292.7430180206299,-0.1012081578373909,0.0773951038718223,-0.5848941206932068,0.8010404109954834,0.2569441004717138,1.9630367531014228,0.9495234987165098,0.1922107487916946,-0.0401160679757595,0.1212271675467491,-0.245810587182641,-0.4700922379642725,-10.160203778743744,10.0,0.0,25,2019-07-09,12:50,R1,2019-07-09 12:50:33.900,509.2100319309393
177,34.11,2.5999999046325684,105.0,-79.7827849495393,40.45902479745112,292.7432869567872,-0.1136079281568527,0.0873828008770942,-0.5810642838478088,0.8011378049850464,0.1801138440744307,2.404454476621096,1.0705929385755728,-0.0269539915025234,-0.1317025274038314,0.0073109017685055,-0.3136806810647249,-0.2177410832606256,-9.98308109164238,10.0,0.0,25,2019-07-09,12:50,R1,2019-07-09 12:50:34.110,551.696894027886
177,34.2,2.900000095367432,97.0,-79.78277888298928,40.45902656327323,292.7378510131836,-0.1307529956102371,0.0954181030392646,-0.5769392848014832,0.8005874752998352,0.1180756049467063,2.8454647263971906,1.234216347157134,-0.0619133673608303,-0.1785372942686081,-0.135011538863182,-0.4691300055384636,-0.05066151894629,-9.836726453304289,10.0,0.0,25,2019-07-09,12:50,R1,2019-07-09 12:50:34.200,571.7534443672048
177,34.3,3.2000000476837163,91.0,-79.78277523175551,40.459027371959394,292.76745687866213,-0.1387748420238495,0.0988889262080192,-0.5749127268791199,0.800273597240448,0.1294454244075634,3.0927894779945984,1.3303013969507247,0.1545029580593109,-0.2045950293540954,0.2397575080394745,-0.5123973548412323,-0.4596188514679671,-9.769396934509276,10.0,0.0,25,2019-07-09,12:50,R1,2019-07-09 12:50:34.300,498.0449055991192
177,34.5,3.5999999046325684,85.0,-79.78277171032488,40.45902886235992,292.7321461334229,-0.1441887617111206,0.1031830161809921,-0.5724208354949951,0.8005605936050415,0.0506952512939754,3.3275957660255013,1.4165479113465431,-0.0259400997310876,-0.1268758326768875,-0.08809295296669,-0.5258420039713383,-0.0928776485100388,-9.778391706347469,10.0,0.0,25,2019-07-09,12:50,R1,2019-07-09 12:50:34.500,555.263039101119
177,34.7,3.799999952316284,82.0,-79.78276295769724,40.45903104965689,292.77327238464363,-0.1449153572320938,0.1084346026182174,-0.5705205202102661,0.8010916709899902,0.0361245714277712,3.8541601473874927,1.6855287684816591,-0.0162024423480033,-0.045646958053112,0.1266685426235199,-0.7296535760164261,-0.3606242844834924,-10.210342483520508,10.0,0.0,25,2019-07-09,12:50,R1,2019-07-09 12:50:34.700,569.5564691446272
177,34.8,4.400000095367432,75.0,-79.78275852429262,40.45903300286532,292.7419708862305,-0.1420945525169372,0.1063400506973266,-0.5698285102844238,0.8023692965507507,-0.0445502163292911,4.10096592956168,1.7876084995177837,-0.0850564986467361,0.0945513620972633,0.0874367505311966,-0.700485033094883,-0.2331193335168064,-10.282678388357162,10.0,0.0,25,2019-07-09,12:50,R1,2019-07-09 12:50:34.800,581.8545503093918
177,34.91,4.699999809265137,75.0,-79.78274835648938,40.45903658412495,292.74470602416994,-0.1355908960103988,0.1021839454770088,-0.5703970789909363,0.8036297559738159,-0.1140477626879323,4.613628831045923,1.9125262784200776,0.0912214219570159,0.096858337521553,-0.1140105202794075,-0.6998291947692633,-0.0788736401125788,-10.281221262216569,10.0,0.0,25,2019-07-09,12:50,R1,2019-07-09 12:50:34.910,543.0825800178718
177,35.1,5.300000190734863,71.0,-79.78273680138618,40.45903988757061,292.7881134643555,-0.1351475268602371,0.1083557233214378,-0.5739651918411255,0.8003487586975098,-0.1621328545051162,5.0806198064856565,2.006023805775715,0.0769791156053543,-0.0083642546087503,-0.0928474143147468,-0.9978740557283164,0.1508960245549679,-9.654692689776422,10.0,0.0,25,2019-07-09,12:50,R1,2019-07-09 12:50:35.100,530.7067462108243
177,35.2,5.599999904632568,69.0,-79.78273109456809,40.45904267654397,292.7579697265625,-0.1363556832075119,0.1099943593144416,-0.5738509297370911,0.8000022172927856,-0.2769326645144317,5.279248112457887,2.0758003711770647,0.0513980388641357,-0.0529236495494842,0.1397333443164825,-0.9720232229679824,-0.4480173908919096,-9.835139518976211,10.0,0.0,25,2019-07-09,12:50,R1,2019-07-09 12:50:35.200,519.2941551285913
177,35.4,6.099999904632568,65.0,-79.78272474050657,40.45904457020559,292.77251516723635,-0.1364637315273285,0.1102926135063171,-0.5747673511505127,0.7992845773696899,-0.2850118511069278,5.487660504607093,2.1426125005617305,0.0258893277496099,0.0071223662234842,-0.1394839584827423,-1.2158739696443082,-0.0792548785731196,-9.725771443247796,10.0,0.0,25,2019-07-09,12:50,R1,2019-07-09 12:50:35.400,535.0586494259334
177,35.6,6.4000000953674325,65.0,-79.78271175276083,40.45904983525272,292.75402342224123,-0.1358648389577865,0.1103543564677238,-0.5739587545394897,0.7999588847160339,-0.3831572588075579,5.904220471175535,2.2382967756261563,0.090835340321064,0.0482978671789169,0.1300959587097168,-1.4025643095374107,-0.4360739047452808,-9.801777060627938,10.0,0.0,25,2019-07-09,12:50,R1,2019-07-09 12:50:35.600,455.0771964977503
177,35.7,7.0,63.0,-79.78269775174194,40.459055559161854,292.73292433166506,-0.1344590485095977,0.1095398738980293,-0.5719330310821533,0.8017570972442627,-0.4987220645904213,6.3207724077186285,2.2889146046283733,-0.1221131086349487,0.0367839597165584,-0.094072125852108,-1.2915136975049972,-0.2040428294241428,-9.52161707818508,10.0,0.0,25,2019-07-09,12:50,R1,2019-07-09 12:50:35.700,482.5251767125228
177,35.8,7.400000095367432,63.0,-79.78269088399409,40.45905800142028,292.73592268371584,-0.1335969567298889,0.1105581000447273,-0.5714581608772278,0.8021000027656555,-0.454257907393704,6.476791692409796,2.280185704433076,0.1174561604857444,0.0588173009455204,-0.0595668889582157,-1.1337122574448586,-0.1058024436235428,-9.390855209827423,10.0,0.0,25,2019-07-09,12:50,R1,2019-07-09 12:50:35.800,529.1399001852407
177,36.0,7.900000095367432,61.0,-79.78268344988365,40.45906169877679,292.7116879119873,-0.1354816555976867,0.110634446144104,-0.5681066513061523,0.8041515946388245,-0.5716450436078369,6.6643929431557725,2.3179117224837897,-0.1140103191137313,0.0169038493186235,-0.1803908199071884,-1.4086810818314552,-0.0991943133529275,-9.403880467414856,10.0,0.0,25,2019-07-09,12:50,R1,2019-07-09 12:50:36.000,511.4260284482298
177,36.2,8.199999809265138,60.0,-79.78266773076972,40.45906688282985,292.6906250610352,-0.1365968734025955,0.1086418554186821,-0.5645711421966553,0.8067203760147095,-0.489664731495767,7.0352618968544975,2.4144235475069418,-0.0827343687415123,-0.1217594072222709,-0.1724355071783065,-1.4990674875676633,-0.2675890169665217,-9.553935223817826,10.0,0.0,25,2019-07-09,12:50,R1,2019-07-09 12:50:36.200,540.6408447199065
177,36.3,8.600000381469728,59.0,-79.782659516792,40.4590709208884,292.67287718200686,-0.1371992528438568,0.1103807464241981,-0.5619861483573914,0.8081856966018677,-0.5414441452679591,7.229053914120804,2.448661323376875,0.1084408462047576,0.0275590177625417,-0.1942984163761139,-1.2334961619973184,-0.0839875783771276,-9.512625814676284,10.0,0.0,25,2019-07-09,12:50,R1,2019-07-09 12:50:36.300,571.130106460012
177,36.41,8.899999618530273,58.0,-79.78264250303381,40.45907801638513,292.6386936798096,-0.1375161260366439,0.1172214671969413,-0.5587176084518433,0.8094338178634644,-0.5943168205044559,7.576300140574157,2.63266886237712,0.0505055449903011,0.0396611094474792,-0.0378464274108409,-1.6138898460567002,-0.0034348737448453,-9.514037332534793,10.0,0.0,25,2019-07-09,12:50,R1,2019-07-09 12:50:36.410,519.2047853051773
177,36.6,9.300000190734863,56.0,-79.78263376484576,40.45908103110512,292.61980139160164,-0.1396019011735916,0.1202392056584358,-0.5580729842185974,0.8090788125991821,-0.5321211880845743,7.7538989104976785,2.6941137078584285,0.0708918049931526,-0.0091750519350171,-0.1107632517814636,-1.5928933717310432,-0.0802683837711811,-9.572807697057724,10.0,0.0,25,2019-07-09,12:50,R1,2019-07-09 12:50:36.600,582.271021257995
177,36.7,9.5,55.0,-79.78261560020402,40.45908860889916,292.5785988464356,-0.145995482802391,0.1188268885016441,-0.5545963048934937,0.8105483055114746,-0.6196996910907518,8.076987305268824,2.8957416350267584,-0.0480689890682697,-0.0983892753720283,0.2636026740074157,-1.769449317455292,-0.3965783384442329,-9.596874836683272,10.0,0.0,25,2019-07-09,12:50,R1,2019-07-09 12:50:36.700,658.4919944900322
177,36.9,9.800000190734863,55.0,-79.78259651883786,40.459096057482256,292.5220879211426,-0.1534583866596222,0.1151108965277671,-0.5514808297157288,0.8118305802345276,-0.6162654182847235,8.417086011691989,3.152766944213085,-0.1119229793548584,-0.1426244229078292,-0.1531947553157806,-1.7181274285912516,-0.3382776880636811,-10.03276137471199,10.0,0.0,25,2019-07-09,12:50,R1,2019-07-09 12:50:36.900,615.4607218776874
177,37.1,10.0,55.0,-79.78258679148294,40.45909952457793,292.50510488891604,-0.1558540910482406,0.1127454414963722,-0.5506624579429626,0.8122615814208984,-0.5807522676249597,8.57476468680505,3.2937900026741813,-0.1001618355512619,-0.1140606477856636,-0.0896547958254814,-2.003294820338488,-0.3083635886013508,-9.853696242570877,10.0,0.0,25,2019-07-09,12:50,R1,2019-07-09 12:50:37.100,546.4182376821554
177,37.2,10.300000190734863,56.0,-79.78257685989927,40.45910307241648,292.4882267608643,-0.1570713818073272,0.1114991381764412,-0.5506528615951538,0.8122056722640991,-0.5658249161289768,8.745480380356469,3.3685905598884016,0.0574004054069519,-0.0466985814273357,-0.1383154988288879,-2.0022649794816973,-0.3462419977784157,-9.736448459029198,10.0,0.0,25,2019-07-09,12:50,R1,2019-07-09 12:50:37.200,643.6174897637466
177,37.3,10.5,56.0,-79.78255651624795,40.45911125174346,292.4315231933594,-0.1517106890678405,0.1218429803848266,-0.5515959858894348,0.8110980391502379,-0.656868886508208,9.074135972880182,3.508429979565984,0.0710187479853629,-0.0400169938802719,-0.0825158134102821,-1.9391738149523736,-0.3200633554905653,-9.910058723688127,10.0,0.0,25,2019-07-09,12:50,R1,2019-07-09 12:50:37.300,613.5051057751989
177,37.5,10.699999809265137,56.0,-79.78253507443429,40.45911977485569,292.3555210723877,-0.1504905670881271,0.1240810081362724,-0.5528329610824585,0.8101434111595154,-0.7754078267572365,9.389104999220674,3.7030629962064032,0.0401931591331958,-0.0435364656150341,-0.1138625666499138,-2.185925292223692,-0.342987912632525,-10.026362181901932,10.0,0.0,25,2019-07-09,12:50,R1,2019-07-09 12:50:37.500,646.4951841337606
177,37.61,11.0,56.0,-79.78252421864926,40.45912372952617,292.3446720733643,-0.1476885974407196,0.1240078806877136,-0.553307294845581,0.8103463649749756,-0.7929732136561879,9.519380801978656,3.803441980455344,0.0221643485128879,0.1685699820518493,-0.0907642692327499,-2.1618102054297923,-0.1511634433083236,-10.147734006643296,10.0,0.0,25,2019-07-09,12:50,R1,2019-07-09 12:50:37.610,583.7442134444719
177,37.7,11.199999809265137,55.0,-79.78251293095262,40.45912824673014,292.2999085083008,-0.1381278336048126,0.1179369315505027,-0.5534421801567078,0.8128427267074585,-0.8379374523153861,9.643663556232193,3.8394805779567696,-0.0677219331264495,0.2716692984104156,-0.1334453970193863,-2.575605231821537,-0.2249340904131532,-10.055795896053317,10.0,0.0,25,2019-07-09,12:50,R1,2019-07-09 12:50:37.700,569.0829436799684
177,37.91,11.5,55.0,-79.78249003509423,40.4591370538316,292.2434986724854,-0.1075421720743179,0.0982660129666328,-0.5563034415245056,0.8181106448173523,-0.8519098940726038,10.026457446539776,3.3364705796243364,-0.1613607555627823,0.3234823346138,0.0838001444935798,-2.4937336876988407,-0.4822702340036631,-9.8471543776989,10.0,0.0,25,2019-07-09,12:50,R1,2019-07-09 12:50:37.910,561.9980764020802
177,38.11,11.699999809265137,55.0,-79.78246742378884,40.459145331876776,292.254673828125,-0.0842411443591117,0.0721791461110115,-0.558150589466095,0.8222904205322266,-0.7748415801906999,10.249203088301725,2.791132024784087,0.0162682682275772,0.2142054140567779,-0.2499638944864273,-2.696722995042801,0.1381830082833767,-10.017819399833678,10.0,0.0,25,2019-07-09,12:50,R1,2019-07-09 12:50:38.110,545.3849641242996
177,38.21,12.0,62.0,-79.78245533226479,40.459149902311,292.2106407775879,-0.079099915921688,0.0702600181102752,-0.5587241649627686,0.8225777149200441,-0.7892398667279468,10.34812646658234,2.4632650396929683,-0.0496346056461334,-0.2213630378246307,0.1548554599285125,-2.491924559175968,-0.4440708492323757,-10.02913610100746,10.0,0.0,25,2019-07-09,12:50,R1,2019-07-09 12:50:38.210,442.7600147268822
177,38.3,12.100000381469728,66.0,-79.78244402626355,40.45915405872059,292.22601782226565,-0.0792604088783264,0.0738635808229446,-0.5591387748718262,0.8219646215438843,-0.7986218690403559,10.325453881704,2.3257468053256027,0.0479760877788066,-0.0495191887021064,0.1033637747168541,-2.6489790174365044,-0.1192436849232763,-9.516593735218049,10.0,0.0,25,2019-07-09,12:50,R1,2019-07-09 12:50:38.300,414.00466084592335
177,38.5,12.399999618530272,66.0,-79.78242080382357,40.45916284604321,292.192288269043,-0.0753605365753173,0.0750671997666359,-0.5591964721679688,0.8221831917762756,-0.833720648369603,10.261816393054763,2.28795626267453,0.0802452564239502,0.1270960718393325,-0.1543418169021606,-2.3938552044332027,-0.3439970324188471,-9.411712812781335,10.0,0.0,25,2019-07-09,12:50,R1,2019-07-09 12:50:38.500,401.9937487272073
177,38.7,12.600000381469728,65.0,-79.78240965413086,40.45916697656767,292.1970757141113,-0.0714352652430534,0.0752833560109138,-0.5595458745956421,0.8222760558128357,-0.8205123745248762,10.225137477657215,2.177473811346936,0.0860839784145355,0.1296576708555221,-0.1936681568622589,-2.384720245599747,-0.3265098376572132,-9.248408265709877,10.0,0.0,25,2019-07-09,12:50,R1,2019-07-09 12:50:38.700,491.4949802119591
177,38.8,12.699999809265137,65.0,-79.7823972578378,40.459171624880575,292.1395462646485,-0.0686063542962074,0.075407363474369,-0.559596061706543,0.8224713206291199,-0.8518982401328015,10.267602214033428,2.057557996640329,-0.0071597066707909,-0.0529582500457763,0.1083474457263946,-2.4490036574006075,-0.5925282559543849,-9.52207491517067,10.0,0.0,25,2019-07-09,12:50,R1,2019-07-09 12:50:38.800,397.3258288806246
177,39.0,12.800000190734863,65.0,-79.78237420890905,40.45918015510392,292.11818395996096,-0.0790900215506553,0.0674282610416412,-0.5574148893356323,0.8237032294273376,-0.8062565970495789,10.238266948612248,1.9283656634867603,-0.1038113683462143,0.1334790140390396,0.0569784305989742,-2.2250830721855164,-0.3175149196386337,-9.153847678899766,10.0,0.0,25,2019-07-09,12:50,R1,2019-07-09 12:50:39.000,465.7674563208639
177,39.11,12.800000190734863,65.0,-79.7823631703031,40.45918426223387,292.10512815856936,-0.0823997557163238,0.0625709071755409,-0.5561200976371765,0.8246367573738098,-0.7918718930043506,10.18405254699141,1.9798075559397468,-0.2501450181007385,0.094773381948471,0.1868831366300583,-2.362295442670584,-0.2650697806477546,-9.213555936813355,10.0,0.0,25,2019-07-09,12:50,R1,2019-07-09 12:50:39.110,494.0142711352746
177,39.21,12.800000190734863,65.0,-79.78234054080556,40.45919272139764,292.09631048583987,-0.0645961239933967,0.050180859863758,-0.5558119416236877,0.8272740840911865,-0.7307592133882289,10.114729824886089,1.848988857815293,0.0286879017949104,0.3766034841537476,0.2575748562812805,-2.5041104489564896,-0.3840187384933233,-9.574099346995354,10.0,0.0,25,2019-07-09,12:50,R1,2019-07-09 12:50:39.210,408.97559953264135
177,39.4,12.699999809265137,67.0,-79.78231794719761,40.459200881139004,292.08904920959475,-0.0361924692988395,0.0352240540087223,-0.5568780899047852,0.8290573954582214,-0.7058270426130192,10.048003611612913,1.2122248662155777,0.0623647198081016,0.3663547635078429,0.0135504910722374,-2.3621005842089646,-0.104763841079548,-9.625855976343155,10.0,0.0,25,2019-07-09,12:50,R1,2019-07-09 12:50:39.400,407.409277104056
177,39.6,12.699999809265137,72.0,-79.7823072831834,40.459204901149256,292.080077041626,-0.0260400827974081,0.0266809500753879,-0.5578495860099792,0.8291043043136597,-0.7116904877059451,9.950989923831514,0.8970945400308098,0.1173082590103149,0.2290876507759094,0.3555474877357483,-2.2341424557566643,-0.7142064747959376,-9.611199345588684,10.0,0.0,25,2019-07-09,12:50,R1,2019-07-09 12:50:39.600,453.2216983917897
177,39.7,12.600000381469728,72.0,-79.78229677208213,40.45920888340535,292.07298742675783,-0.0161093100905418,0.0191123783588409,-0.5594516396522522,0.8284860849380493,-0.7507232978429885,9.832070946964492,0.6584651809239543,0.0106459306553006,0.238614872097969,0.2718731164932251,-2.053201683014632,-0.2723699562996626,-9.87189160823822,10.0,0.0,25,2019-07-09,12:50,R1,2019-07-09 12:50:39.700,387.5645767674432
177,39.91,12.5,72.0,-79.78227507270013,40.45921666385316,292.0845345153809,-0.00235933996737,0.0100202048197388,-0.5627375245094299,0.8265715837478638,-0.8162072273690054,9.564234203214903,0.2872367911901267,0.0511368811130523,0.0429729409515857,-0.2282205075025558,-1.9929861791431904,-0.0292393125034868,-10.083180745840073,10.0,0.0,25,2019-07-09,12:50,R1,2019-07-09 12:50:39.910,421.8960917566112
177,40.0,12.300000190734863,83.0,-79.78225436608295,40.4592240144395,292.0906857147217,-0.0043954690918326,0.0130644142627716,-0.5635365843772888,0.8259760737419128,-0.8601191932411504,9.263631422337776,0.1708635527035088,-0.0449467524886131,0.0124981766566634,-0.0913630574941635,-1.8282427784800528,-0.0320357616618275,-9.814240400791167,10.0,0.0,25,2019-07-09,12:50,R1,2019-07-09 12:50:40.000,375.4313860441253
177,40.2,12.199999809265137,82.0,-79.78224466231707,40.4592277606033,292.09252439880373,-0.0083725927397608,0.0149787906557321,-0.5636990666389465,0.8258020877838135,-0.871710962171486,9.107613869609626,0.187331986475281,0.0321292020380497,-0.0055326079018414,0.0379220992326736,-1.5953727373480795,-0.2566706939041615,-9.57955538392067,10.0,0.0,25,2019-07-09,12:50,R1,2019-07-09 12:50:40.200,381.0157940322824
177,40.3,12.100000381469728,82.0,-79.78223420055274,40.45923120131571,292.0921524658204,-0.0118425907567143,0.0170688014477491,-0.5624340772628784,0.8265811800956726,-0.8667044860736501,8.990067993483775,0.2011871814183862,-0.2002840936183929,-0.1683574616909027,0.0400224886834621,-1.7280655024945737,-0.2053589828498661,-9.46215381860733,10.0,0.0,25,2019-07-09,12:50,R1,2019-07-09 12:50:40.300,388.69930943805593
177,40.42,11.800000190734863,82.0,-79.78221464878813,40.45923817539109,292.1039856567383,-0.0197245012968778,0.0185622908174991,-0.5589852333068848,0.8287351727485657,-0.7707754140277875,8.747502492988449,0.2263473407539342,0.1092321798205375,-0.1504243314266204,0.0372621603310108,-2.043729339838028,-0.4143675784394145,-8.973389739990234,10.0,0.0,25,2019-07-09,12:50,R1,2019-07-09 12:50:40.420,401.0034991159045
177,40.5,11.699999809265137,79.0,-79.78220547045815,40.45924173475942,292.08557402038576,-0.0233358368277549,0.0176013521850109,-0.5577014088630676,0.8295269012451172,-0.7523039838807093,8.633287239183607,0.2516599705219323,0.0101699149236083,0.1241574361920356,0.0833143293857574,-1.6393139782547952,-0.1740994025208056,-9.330764544010163,10.0,0.0,25,2019-07-09,12:50,R1,2019-07-09 12:50:40.500,429.6000341278413
177,40.7,11.600000381469728,79.0,-79.78219643154881,40.45924527404832,292.06410681152346,-0.0265613105148077,0.0175560340285301,-0.5574178099632263,0.8296214938163757,-0.7710692439416142,8.517884857939974,0.2659208662105346,-0.090214118361473,-0.2047955095767974,-0.0773630589246749,-2.1317685270309448,0.0052699127420783,-9.31394561290741,10.0,0.0,25,2019-07-09,12:50,R1,2019-07-09 12:50:40.700,466.89510706366855
177,40.9,11.5,79.0,-79.78217795961946,40.45925186396916,292.06064115905764,-0.0352793484926223,0.0240043550729751,-0.5567269921302795,0.8295988440513611,-0.7478542453134106,8.351694794625544,0.4369464163953196,-0.0314143598079681,-0.1086622476577758,-0.1490682661533355,-1.7085651844739915,0.2150707877799868,-9.882877357006072,10.0,0.0,25,2019-07-09,12:50,R1,2019-07-09 12:50:40.900,392.8192557319744
177,41.01,11.300000190734863,76.0,-79.78216007653992,40.45925828062968,292.05745588684084,-0.0505480542778968,0.043045025318861,-0.5543678998947144,0.8296194076538086,-0.7269238120739265,8.222034375827526,0.6645175638488034,-0.0632416233420372,-0.2362641394138336,0.0987392216920852,-1.514316002726555,-0.3919108350947499,-9.472667112350464,10.0,0.0,25,2019-07-09,12:50,R1,2019-07-09 12:50:41.010,433.5011168960045
177,41.11,11.199999809265137,73.0,-79.78215143538414,40.459261702945966,292.03460585021975,-0.0622581616044044,0.0489702597260475,-0.5520174503326416,0.8300618529319763,-0.7228178899288632,8.174594010230352,0.8206857429000298,-0.0994949638843536,-0.3457070291042328,0.0658610388636589,-1.6383417324721814,-0.5252890400961042,-9.321309011578562,10.0,0.0,25,2019-07-09,12:50,R1,2019-07-09 12:50:41.110,421.7164375500725
177,41.3,11.0,74.0,-79.78213372158822,40.45926805278954,292.025820602417,-0.0802801549434661,0.0573805570602417,-0.5486504435539246,0.8302079439163208,-0.6475419865143281,8.117693417938618,1.2201675483407546,-0.0858903750777244,-0.1154491677880287,0.1671625077724456,-2.026805743575096,-0.1479754682444036,-9.390404974222184,10.0,0.0,25,2019-07-09,12:50,R1,2019-07-09 12:50:41.300,472.8234856533527
177,41.4,10.899999618530272,74.0,-79.78212468870544,40.45927092773928,292.0460671081543,-0.0840713456273078,0.0622681826353073,-0.5472053289413452,0.8304342031478882,-0.5826423336008932,8.116387797562169,1.3800515628689338,0.0604195818305015,-0.1494290679693222,0.104339450597763,-2.0287657302618034,-0.3832533745095134,-9.520211992263793,10.0,0.0,25,2019-07-09,12:50,R1,2019-07-09 12:50:41.400,461.22286535213067
177,41.7,10.699999809265137,67.0,-79.78210728105023,40.459277759643975,291.9953144683838,-0.0969394668936729,0.0680417940020561,-0.5458452701568604,0.8294734358787537,-0.5844417453523051,8.182932009065263,1.566446936588299,0.0282697100192308,-0.1978599727153778,0.0615777447819709,-1.852591169178485,-0.4624872761964798,-9.390464031100272,10.0,0.0,25,2019-07-09,12:50,R1,2019-07-09 12:50:41.700,447.69978160129546
177,41.8,10.699999809265137,65.0,-79.78208935290634,40.45928411304311,291.98448072814944,-0.1113330200314521,0.0761565193533897,-0.542887806892395,0.8289016485214233,-0.5299422777385335,8.258503693338133,1.890318536736069,0.1140962466597557,0.0012280523078516,-0.0991264656186103,-1.8465169353783133,-0.2583381188102067,-9.586648641228676,10.0,0.0,25,2019-07-09,12:50,R1,2019-07-09 12:50:41.800,465.0077700058462
177,41.9,10.600000381469728,65.0,-79.78208045796003,40.45928730677327,291.964468826294,-0.1176186203956604,0.0836793482303619,-0.5413400530815125,0.8283203840255737,-0.5185928163097474,8.28907381080397,2.0493445915829565,0.1173653528094291,-0.1839969903230667,-0.1281546503305435,-1.5625414985418318,-0.2564295145310462,-9.781819928884508,10.0,0.0,25,2019-07-09,12:50,R1,2019-07-09 12:50:41.900,491.90663463164674
177,42.0,10.5,66.0,-79.78207143200332,40.4592908297444,291.9412144317627,-0.1218357980251312,0.090054914355278,-0.5399219393730164,0.8279677629470825,-0.5250875723664095,8.34418830269852,2.2461615911700163,0.0495996139943599,-0.0303269457072019,-0.2321743071079254,-1.9027779673039915,-0.2075945013016462,-9.866581166982652,10.0,0.0,25,2019-07-09,12:50,R1,2019-07-09 12:50:42.000,576.778540044681
177,42.2,10.600000381469728,63.0,-79.78205315787139,40.45929766863998,291.9095657958985,-0.1301117986440658,0.0969055071473121,-0.5376068353652954,0.8274413943290709,-0.4921384737922747,8.483861232100798,2.505578735468845,0.0268797390162944,-0.2504197955131531,-0.122162252664566,-1.827094092965126,-0.1025036090053618,-9.579616779685018,10.0,0.0,25,2019-07-09,12:50,R1,2019-07-09 12:50:42.200,522.230400621891
177,42.4,10.600000381469728,61.0,-79.78204377679683,40.45930130018436,291.88746343994137,-0.1335067600011825,0.103263258934021,-0.536608099937439,0.8267796039581299,-0.4891892264351321,8.576085789673378,2.6462314216768683,-0.076056994497776,-0.17946557700634,0.2045229226350784,-1.9491680221259595,-0.2250129912793636,-9.697082664370535,10.0,0.0,25,2019-07-09,12:50,R1,2019-07-09 12:50:42.400,501.04942353962537
177,42.5,10.699999809265137,61.0,-79.78203439010045,40.45930475898373,291.866942276001,-0.1385602951049804,0.1076634675264358,-0.5360653996467589,0.825738251209259,-0.4882103545563603,8.637028121808129,2.792504519711379,0.0157571863383054,-0.1604767441749572,-0.2077633887529372,-2.0309071268141268,0.0343810798600316,-9.786807603836062,10.0,0.0,25,2019-07-09,12:50,R1,2019-07-09 12:50:42.500,591.6781190303592
177,42.71,10.800000190734863,61.0,-79.78200514990627,40.45931582081385,291.80204283142086,-0.1503362357616424,0.1067676246166229,-0.5368345975875854,0.8232911229133606,-0.5166926148056641,8.91012076275432,3.2026860080835995,-0.1091905087232589,0.0539067052304744,0.0010999746154993,-2.3974208365380765,-0.0552423007786274,-9.553716537952424,10.0,0.0,25,2019-07-09,12:50,R1,2019-07-09 12:50:42.710,638.0601880803077
177,42.8,10.899999618530272,57.0,-79.7819950916522,40.45931969654071,291.78036772155764,-0.144368976354599,0.1026114448904991,-0.5387559533119202,0.8236325979232788,-0.5278280590195085,9.039554754335978,3.3018945329613536,-0.0153421442955732,0.1309014856815338,0.0157217420637607,-2.403782314807177,-0.17102323718369,-10.035021908283236,10.0,0.0,25,2019-07-09,12:50,R1,2019-07-09 12:50:42.800,697.2187721624942
177,42.91,11.0,56.0,-79.78198485413022,40.45932356391975,291.78060041809084,-0.1348902434110641,0.0923493579030036,-0.5411669015884399,0.8248725533485413,-0.5783167559245113,9.15789169254651,3.3042612286809057,-0.0387280620634555,0.4177457392215729,0.1736143827438354,-2.4158878053724773,-0.2445710688270629,-10.463148021697998,10.0,0.0,25,2019-07-09,12:50,R1,2019-07-09 12:50:42.910,563.5866159412762
177,43.2,11.199999809265137,56.0,-79.78196414737809,40.45933162238791,291.7820404663086,-0.1080900728702545,0.0743904709815979,-0.545511782169342,0.8277677893638611,-0.6398756029231321,9.456689564310146,2.9735496351521133,0.1302754431962967,0.2261875420808792,0.1382910162210464,-2.503499999642372,-0.2456454764306545,-10.362558370828628,10.0,0.0,25,2019-07-09,12:50,R1,2019-07-09 12:50:43.200,550.5273418215256
177,43.3,11.300000190734863,55.0,-79.78195359917298,40.45933568211044,291.7942589416504,-0.0950827524065971,0.0756307616829872,-0.5467082262039185,0.8284621238708496,-0.6804075793096056,9.561996746832405,2.7321622323250327,0.1789826899766922,0.3637367486953736,-0.1640942245721817,-2.366324320435524,0.0481635884195566,-10.28158262014389,10.0,0.0,25,2019-07-09,12:50,R1,2019-07-09 12:50:43.300,553.4846363579345
177,43.4,11.600000381469728,64.0,-79.7819431318318,40.459339775327344,291.8123196258545,-0.0846668779850006,0.0792347267270088,-0.5468332171440125,0.8291724920272827,-0.7227156833046685,9.612370280774684,2.5806884033973843,0.0778893828392028,0.1821984946727752,0.0618230029940605,-2.2964287510514256,-0.1345519695896655,-10.15087746977806,10.0,0.0,25,2019-07-09,12:50,R1,2019-07-09 12:50:43.400,542.0244159862705
177,43.61,11.699999809265137,64.0,-79.78191149666101,40.45935204079017,291.87023435974123,-0.0834450051188469,0.0865267962217331,-0.5466260313987732,0.8287038207054138,-0.7214845109774691,9.662164596293737,2.343904141038104,-0.267827570438385,-0.2649855315685272,0.1409041285514831,-2.21860611140728,-0.2776408192142844,-9.885847742557528,10.0,0.0,25,2019-07-09,12:50,R1,2019-07-09 12:50:43.610,536.3283378338965
